line_orientation,blocks.thisRepN,blocks.thisTrialN,blocks.thisN,blocks.thisIndex,trials.thisRepN,trials.thisTrialN,trials.thisN,trials.thisIndex,InstructionText.started,InstructionText.stopped,InstructionResponse.keys,InstructionResponse.rt,InstructionResponse.started,InstructionResponse.stopped,BlockText.started,BlockText.stopped,key_resp_2.keys,key_resp_2.rt,key_resp_2.started,key_resp_2.stopped,ISITimer.started,ISITimer.stopped,FirstLineTimer.started,FirstLineTimer.stopped,GapTimer.started,GapTimer.stopped,SeqResponse.keys,SeqResponse.rt,SeqResponse.started,SeqResponse.stopped,ResponseSimul.keys,ResponseSimul.started,ResponseSimul.stopped,left_width,right_width,global_line_length,global_starting_point_left_x,global_distance_between_lines,first_line_label,second_line_label,ResponseSimul.rt,participant,session,date,expName,psychopyVersion,frameRate,Unnamed: 48
,,,,,,,,,16.933227799999994,None,space,2.3202960999999505,16.933227799999994,None,,,,,,,,,,,,,,,,,,,,,,,,,,,,Nick,1,2021_Jul_19_1956,compare_lines,2021.2.0,59.995524333880994,
horizontal,0.0,0.0,0.0,0.0,0.0,0.0,0.0,0.0,,,,,,,19.291803399999992,None,space,1.2225248999999965,19.291803399999992,None,20.54717679999999,None,21.059566500000017,None,22.053884299999993,None,down,1.7622837000000118,22.554214899999977,None,None,None,None,3.3684210526315788,4.0,300.0,-300.0,600.0,right,left,,Nick,1,2021_Jul_19_1956,compare_lines,2021.2.0,59.995524333880994,
vertical,0.0,0.0,0.0,0.0,0.0,1.0,1.0,1.0,,,,,,,,,,,,,24.346239399999998,None,24.853868199999965,None,25.85381739999997,None,left,0.7855748999999719,26.35367960000002,None,None,None,None,3.5263157894736836,1.7894736842105263,300.0,-300.0,600.0,right,left,,Nick,1,2021_Jul_19_1956,compare_lines,2021.2.0,59.995524333880994,
diagonal2,0.0,0.0,0.0,0.0,0.0,2.0,2.0,3.0,,,,,,,,,,,,,27.16150859999999,None,27.670291899999995,None,28.67016269999999,None,down,1.3120937999999571,29.170152099999996,None,None,None,None,3.5263157894736836,3.5263157894736836,300.0,-300.0,600.0,right,left,,Nick,1,2021_Jul_19_1956,compare_lines,2021.2.0,59.995524333880994,
diagonal1,0.0,0.0,0.0,0.0,0.0,3.0,3.0,2.0,,,,,,,,,,,,,30.507709100000003,None,31.02020809999999,None,32.02017649999999,None,right,1.5000844999999572,32.51999619999998,None,None,None,None,2.736842105263157,3.842105263157895,300.0,-300.0,600.0,right,left,,Nick,1,2021_Jul_19_1956,compare_lines,2021.2.0,59.995524333880994,
diagonal1,0.0,0.0,0.0,0.0,1.0,0.0,4.0,2.0,,,,,,,,,,,,,34.04156519999998,None,34.55326209999998,None,35.55309490000002,None,left,0.5156779999999799,36.05306680000001,None,None,None,None,2.8947368421052633,1.631578947368421,300.0,-300.0,600.0,right,left,,Nick,1,2021_Jul_19_1956,compare_lines,2021.2.0,59.995524333880994,
diagonal2,0.0,0.0,0.0,0.0,1.0,1.0,5.0,3.0,,,,,,,,,,,,,36.5947334,None,37.10478439999997,None,38.103647799999976,None,right,2.166369400000008,38.60330110000001,None,None,None,None,1.4736842105263157,1.4736842105263157,300.0,-300.0,600.0,right,left,,Nick,1,2021_Jul_19_1956,compare_lines,2021.2.0,59.995524333880994,
vertical,0.0,0.0,0.0,0.0,1.0,2.0,6.0,1.0,,,,,,,,,,,,,40.790171900000026,None,41.30298799999997,None,42.30275169999999,None,left,0.4849088999999936,42.80286769999998,None,None,None,None,2.8947368421052633,1.4736842105263157,300.0,-300.0,600.0,right,left,,Nick,1,2021_Jul_19_1956,compare_lines,2021.2.0,59.995524333880994,
horizontal,0.0,0.0,0.0,0.0,1.0,3.0,7.0,0.0,,,,,,,,,,,,,43.3095677,None,43.819490900000005,None,44.81924889999999,None,right,1.1310592000000383,45.31932979999999,None,None,None,None,1.0,2.263157894736842,300.0,-300.0,600.0,right,left,,Nick,1,2021_Jul_19_1956,compare_lines,2021.2.0,59.995524333880994,
vertical,0.0,0.0,0.0,0.0,2.0,0.0,8.0,1.0,,,,,,,,,,,,,46.47378420000001,None,46.985996099999966,None,47.98575169999998,None,down,0.979759799999954,48.48569349999997,None,None,None,None,1.7894736842105263,1.7894736842105263,300.0,-300.0,600.0,left,right,,Nick,1,2021_Jul_19_1956,compare_lines,2021.2.0,59.995524333880994,
horizontal,0.0,0.0,0.0,0.0,2.0,1.0,9.0,0.0,,,,,,,,,,,,,49.49041769999997,None,50.00230060000001,None,51.002264999999966,None,left,0.7520877000000041,51.502227800000014,None,None,None,None,3.842105263157895,3.842105263157895,300.0,-300.0,600.0,right,left,,Nick,1,2021_Jul_19_1956,compare_lines,2021.2.0,59.995524333880994,
diagonal2,0.0,0.0,0.0,0.0,2.0,2.0,10.0,3.0,,,,,,,,,,,,,52.27556199999998,None,52.78584380000001,None,53.785373600000014,None,down,0.7015339000000154,54.28535569999997,None,None,None,None,1.9473684210526316,1.7894736842105263,300.0,-300.0,600.0,left,right,,Nick,1,2021_Jul_19_1956,compare_lines,2021.2.0,59.995524333880994,
diagonal1,0.0,0.0,0.0,0.0,2.0,3.0,11.0,2.0,,,,,,,,,,,,,55.01001120000001,None,55.51882039999998,None,56.51900159999997,None,right,0.8617735000000266,57.018495400000006,None,None,None,None,1.0,2.736842105263157,300.0,-300.0,600.0,right,left,,Nick,1,2021_Jul_19_1956,compare_lines,2021.2.0,59.995524333880994,
diagonal2,0.0,0.0,0.0,0.0,3.0,0.0,12.0,3.0,,,,,,,,,,,,,57.91692679999999,None,58.41851409999998,None,59.419206299999985,None,right,0.6586994999999547,59.918505400000015,None,None,None,None,1.3157894736842106,2.1052631578947367,300.0,-300.0,600.0,left,right,,Nick,1,2021_Jul_19_1956,compare_lines,2021.2.0,59.995524333880994,
horizontal,0.0,0.0,0.0,0.0,3.0,1.0,13.0,0.0,,,,,,,,,,,,,60.61653819999998,None,61.121294499999976,None,62.135381800000005,None,left,0.8336651999999845,62.634884899999975,None,None,None,None,3.3684210526315788,3.3684210526315788,300.0,-300.0,600.0,right,left,,Nick,1,2021_Jul_19_1956,compare_lines,2021.2.0,59.995524333880994,
diagonal1,0.0,0.0,0.0,0.0,3.0,2.0,14.0,2.0,,,,,,,,,,,,,63.49132109999999,None,64.00114059999999,None,65.0011869,None,right,0.7961813000000006,65.50115260000001,None,None,None,None,1.9473684210526316,2.5789473684210527,300.0,-300.0,600.0,right,left,,Nick,1,2021_Jul_19_1956,compare_lines,2021.2.0,59.995524333880994,
vertical,0.0,0.0,0.0,0.0,3.0,3.0,15.0,1.0,,,,,,,,,,,,,66.32483759999997,None,66.83429469999999,None,67.8343774,None,left,0.8665485000000217,68.3343678,None,None,None,None,3.5263157894736836,3.5263157894736836,300.0,-300.0,600.0,right,left,,Nick,1,2021_Jul_19_1956,compare_lines,2021.2.0,59.995524333880994,
diagonal2,0.0,0.0,0.0,0.0,4.0,0.0,16.0,3.0,,,,,,,,,,,,,69.22502129999998,None,69.73431549999998,None,70.73525849999999,None,right,0.8666397000000075,71.23562820000001,None,None,None,None,1.3157894736842106,1.7894736842105263,300.0,-300.0,600.0,right,left,,Nick,1,2021_Jul_19_1956,compare_lines,2021.2.0,59.995524333880994,
horizontal,0.0,0.0,0.0,0.0,4.0,1.0,17.0,0.0,,,,,,,,,,,,,72.13513619999998,None,72.63814000000002,None,73.64305009999998,None,left,0.5732002000000307,74.15211979999998,None,None,None,None,3.3684210526315788,2.421052631578948,300.0,-300.0,600.0,right,left,,Nick,1,2021_Jul_19_1956,compare_lines,2021.2.0,59.995524333880994,
vertical,0.0,0.0,0.0,0.0,4.0,2.0,18.0,1.0,,,,,,,,,,,,,74.77060399999998,None,75.29801379999998,None,76.28652840000001,None,left,0.4364957999999888,76.78495279999999,None,None,None,None,3.3684210526315788,2.263157894736842,300.0,-300.0,600.0,right,left,,Nick,1,2021_Jul_19_1956,compare_lines,2021.2.0,59.995524333880994,
diagonal1,0.0,0.0,0.0,0.0,4.0,3.0,19.0,2.0,,,,,,,,,,,,,77.25369519999998,None,77.77014029999998,None,78.781206,None,right,0.5541022000000453,79.26795349999998,None,None,None,None,1.7894736842105263,3.3684210526315788,300.0,-300.0,600.0,right,left,,Nick,1,2021_Jul_19_1956,compare_lines,2021.2.0,59.995524333880994,
diagonal1,0.0,0.0,0.0,0.0,5.0,0.0,20.0,2.0,,,,,,,,,,,,,79.85939009999998,None,80.36722529999997,None,81.36684529999997,None,right,0.9008198999999876,81.8683671,None,None,None,None,1.9473684210526316,2.736842105263157,300.0,-300.0,600.0,right,left,,Nick,1,2021_Jul_19_1956,compare_lines,2021.2.0,59.995524333880994,
vertical,0.0,0.0,0.0,0.0,5.0,1.0,21.0,1.0,,,,,,,,,,,,,82.79115280000002,None,83.30034769999997,None,84.30095799999998,None,right,0.4131735000000276,84.80008409999999,None,None,None,None,1.1578947368421053,3.684210526315789,300.0,-300.0,600.0,left,right,,Nick,1,2021_Jul_19_1956,compare_lines,2021.2.0,59.995524333880994,
horizontal,0.0,0.0,0.0,0.0,5.0,2.0,22.0,0.0,,,,,,,,,,,,,85.23981359999998,None,85.75004419999999,None,86.749931,None,down,0.7321789999999737,87.25030570000001,None,None,None,None,2.5789473684210527,3.210526315789473,300.0,-300.0,600.0,right,left,,Nick,1,2021_Jul_19_1956,compare_lines,2021.2.0,59.995524333880994,
diagonal2,0.0,0.0,0.0,0.0,5.0,3.0,23.0,3.0,,,,,,,,,,,,,88.00677289999999,None,88.51690379999997,None,89.5165366,None,right,0.4949419999999805,90.0167452,None,None,None,None,1.631578947368421,3.210526315789473,300.0,-300.0,600.0,right,left,,Nick,1,2021_Jul_19_1956,compare_lines,2021.2.0,59.995524333880994,
diagonal1,0.0,0.0,0.0,0.0,6.0,0.0,24.0,2.0,,,,,,,,,,,,,90.54262759999999,None,91.04961199999997,None,92.04991050000001,None,right,0.7491929000000255,92.549507,None,None,None,None,1.1578947368421053,1.9473684210526316,300.0,-300.0,600.0,right,left,,Nick,1,2021_Jul_19_1956,compare_lines,2021.2.0,59.995524333880994,
vertical,0.0,0.0,0.0,0.0,6.0,1.0,25.0,1.0,,,,,,,,,,,,,93.3297496,None,93.8363511,None,94.84985039999998,None,down,0.982528900000034,95.34960209999997,None,None,None,None,2.421052631578948,2.5789473684210527,300.0,-300.0,600.0,right,left,,Nick,1,2021_Jul_19_1956,compare_lines,2021.2.0,59.995524333880994,
diagonal2,0.0,0.0,0.0,0.0,6.0,2.0,26.0,3.0,,,,,,,,,,,,,96.3539748,None,96.86584139999997,None,97.8659356,None,down,0.8267160999999987,98.36591829999998,None,None,None,None,1.9473684210526316,1.9473684210526316,300.0,-300.0,600.0,right,left,,Nick,1,2021_Jul_19_1956,compare_lines,2021.2.0,59.995524333880994,
horizontal,0.0,0.0,0.0,0.0,6.0,3.0,27.0,0.0,,,,,,,,,,,,,99.2228746,None,99.7324893,None,100.73247029999999,None,left,0.5592543000000205,101.23242519999997,None,None,None,None,3.5263157894736836,2.263157894736842,300.0,-300.0,600.0,left,right,,Nick,1,2021_Jul_19_1956,compare_lines,2021.2.0,59.995524333880994,
diagonal1,0.0,0.0,0.0,0.0,7.0,0.0,28.0,2.0,,,,,,,,,,,,,101.81985349999997,None,102.3322058,None,103.332178,None,down,0.8378430000000208,103.83223939999999,None,None,None,None,4.0,4.0,300.0,-300.0,600.0,left,right,,Nick,1,2021_Jul_19_1956,compare_lines,2021.2.0,59.995524333880994,
vertical,0.0,0.0,0.0,0.0,7.0,1.0,29.0,1.0,,,,,,,,,,,,,104.7029223,None,105.21550919999999,None,106.21546689999997,None,left,0.5029784999999833,106.71543739999998,None,None,None,None,3.842105263157895,2.263157894736842,300.0,-300.0,600.0,right,left,,Nick,1,2021_Jul_19_1956,compare_lines,2021.2.0,59.995524333880994,
horizontal,0.0,0.0,0.0,0.0,7.0,2.0,30.0,0.0,,,,,,,,,,,,,107.23926680000001,None,107.74920370000001,None,108.7486371,None,down,0.7694943999999849,109.24860799999999,None,None,None,None,3.210526315789473,3.210526315789473,300.0,-300.0,600.0,right,left,,Nick,1,2021_Jul_19_1956,compare_lines,2021.2.0,59.995524333880994,
diagonal2,0.0,0.0,0.0,0.0,7.0,3.0,31.0,3.0,,,,,,,,,,,,,110.03737159999996,None,110.54860070000001,None,111.54852189999997,None,left,0.6250707999999463,112.04842889999998,None,None,None,None,3.684210526315789,3.684210526315789,300.0,-300.0,600.0,right,left,,Nick,1,2021_Jul_19_1956,compare_lines,2021.2.0,59.995524333880994,
diagonal2,0.0,0.0,0.0,0.0,8.0,0.0,32.0,3.0,,,,,,,,,,,,,112.7029212,None,113.21502620000001,None,114.215012,None,right,0.8835670999999934,114.71497139999997,None,None,None,None,1.0,1.0,300.0,-300.0,600.0,right,left,,Nick,1,2021_Jul_19_1956,compare_lines,2021.2.0,59.995524333880994,
vertical,0.0,0.0,0.0,0.0,8.0,1.0,33.0,1.0,,,,,,,,,,,,,115.6228838,None,116.13153540000002,None,117.1316349,None,down,0.5699177000000191,117.63149859999999,None,None,None,None,1.631578947368421,1.631578947368421,300.0,-300.0,600.0,right,left,,Nick,1,2021_Jul_19_1956,compare_lines,2021.2.0,59.995524333880994,
horizontal,0.0,0.0,0.0,0.0,8.0,2.0,34.0,0.0,,,,,,,,,,,,,118.2205146,None,118.73128559999998,None,119.731336,None,right,0.4810880999999654,120.2311985,None,None,None,None,4.0,4.0,300.0,-300.0,600.0,left,right,,Nick,1,2021_Jul_19_1956,compare_lines,2021.2.0,59.995524333880994,
diagonal1,0.0,0.0,0.0,0.0,8.0,3.0,35.0,2.0,,,,,,,,,,,,,120.73809970000002,None,121.2479778,None,122.24807729999998,None,down,0.8272424000000456,122.74784699999998,None,None,None,None,1.631578947368421,1.631578947368421,300.0,-300.0,600.0,left,right,,Nick,1,2021_Jul_19_1956,compare_lines,2021.2.0,59.995524333880994,
diagonal1,0.0,0.0,0.0,0.0,9.0,0.0,36.0,2.0,,,,,,,,,,,,,123.60470859999998,None,124.1144157,None,125.11434730000002,None,down,0.8707311000000004,125.61434509999998,None,None,None,None,3.052631578947368,2.8947368421052633,300.0,-300.0,600.0,left,right,,Nick,1,2021_Jul_19_1956,compare_lines,2021.2.0,59.995524333880994,
vertical,0.0,0.0,0.0,0.0,9.0,1.0,37.0,1.0,,,,,,,,,,,,,126.51801159999997,None,127.03082080000001,None,128.0308566,None,left,0.533799799999997,128.530821,None,None,None,None,3.210526315789473,1.7894736842105263,300.0,-300.0,600.0,left,right,,Nick,1,2021_Jul_19_1956,compare_lines,2021.2.0,59.995524333880994,
horizontal,0.0,0.0,0.0,0.0,9.0,2.0,38.0,0.0,,,,,,,,,,,,,129.0880909,None,129.5974288,None,130.59765099999998,None,down,0.965580500000044,131.09736119999997,None,None,None,None,1.7894736842105263,1.7894736842105263,300.0,-300.0,600.0,left,right,,Nick,1,2021_Jul_19_1956,compare_lines,2021.2.0,59.995524333880994,
diagonal2,0.0,0.0,0.0,0.0,9.0,3.0,39.0,3.0,,,,,,,,,,,,,132.0877445,None,132.59715169999998,None,133.597239,None,down,0.7018833999999856,134.0972182,None,None,None,None,1.0,1.7894736842105263,300.0,-300.0,600.0,left,right,,Nick,1,2021_Jul_19_1956,compare_lines,2021.2.0,59.995524333880994,
diagonal2,0.0,0.0,0.0,0.0,10.0,0.0,40.0,3.0,,,,,,,,,,,,,134.82028680000002,None,135.33085060000002,None,136.33053460000002,None,right,0.8320334000000003,136.8304124,None,None,None,None,2.8947368421052633,2.8947368421052633,300.0,-300.0,600.0,left,right,,Nick,1,2021_Jul_19_1956,compare_lines,2021.2.0,59.995524333880994,
horizontal,0.0,0.0,0.0,0.0,10.0,1.0,41.0,0.0,,,,,,,,,,,,,137.68758290000002,None,138.19691640000002,None,139.19690889999998,None,left,0.4757862999999816,139.6968602,None,None,None,None,3.052631578947368,1.4736842105263157,300.0,-300.0,600.0,right,left,,Nick,1,2021_Jul_19_1956,compare_lines,2021.2.0,59.995524333880994,
diagonal1,0.0,0.0,0.0,0.0,10.0,2.0,42.0,2.0,,,,,,,,,,,,,140.2025858,None,140.7134494,None,141.71379609999997,None,down,0.8768101000000001,142.21353620000002,None,None,None,None,3.5263157894736836,3.052631578947368,300.0,-300.0,600.0,left,right,,Nick,1,2021_Jul_19_1956,compare_lines,2021.2.0,59.995524333880994,
vertical,0.0,0.0,0.0,0.0,10.0,3.0,43.0,1.0,,,,,,,,,,,,,143.12003159999998,None,143.63024919999998,None,144.6298948,None,down,0.7767670000000066,145.12988719999998,None,None,None,None,3.052631578947368,3.842105263157895,300.0,-300.0,600.0,right,left,,Nick,1,2021_Jul_19_1956,compare_lines,2021.2.0,59.995524333880994,
vertical,0.0,0.0,0.0,0.0,11.0,0.0,44.0,1.0,,,,,,,,,,,,,145.9362165,None,146.4466888,None,147.446413,None,down,0.5582307000000242,147.9464018,None,None,None,None,2.5789473684210527,2.263157894736842,300.0,-300.0,600.0,left,right,,Nick,1,2021_Jul_19_1956,compare_lines,2021.2.0,59.995524333880994,
diagonal2,0.0,0.0,0.0,0.0,11.0,1.0,45.0,3.0,,,,,,,,,,,,,148.5362468,None,149.0463416,None,150.0462316,None,right,0.5531498999999941,150.5462394,None,None,None,None,1.631578947368421,3.842105263157895,300.0,-300.0,600.0,right,left,,Nick,1,2021_Jul_19_1956,compare_lines,2021.2.0,59.995524333880994,
diagonal1,0.0,0.0,0.0,0.0,11.0,2.0,46.0,2.0,,,,,,,,,,,,,151.11957900000002,None,151.6297518,None,152.62953699999997,None,left,0.6241398000000231,153.1294251,None,None,None,None,3.684210526315789,1.7894736842105263,300.0,-300.0,600.0,right,left,,Nick,1,2021_Jul_19_1956,compare_lines,2021.2.0,59.995524333880994,
horizontal,0.0,0.0,0.0,0.0,11.0,3.0,47.0,0.0,,,,,,,,,,,,,153.78685349999998,None,154.2961088,None,155.29596479999998,None,left,0.7555950999999936,155.79595319999999,None,None,None,None,2.8947368421052633,1.0,300.0,-300.0,600.0,left,right,,Nick,1,2021_Jul_19_1956,compare_lines,2021.2.0,59.995524333880994,
horizontal,0.0,0.0,0.0,0.0,12.0,0.0,48.0,0.0,,,,,,,,,,,,,156.58569439999997,None,157.09583700000002,None,158.0960007,None,right,0.4124145000000112,158.59614299999998,None,None,None,None,2.1052631578947367,3.3684210526315788,300.0,-300.0,600.0,left,right,,Nick,1,2021_Jul_19_1956,compare_lines,2021.2.0,59.995524333880994,
diagonal2,0.0,0.0,0.0,0.0,12.0,1.0,49.0,3.0,,,,,,,,,,,,,159.04217309999999,None,159.54577109999997,None,160.54590760000002,None,down,0.7088688000000047,161.04561940000002,None,None,None,None,1.0,1.4736842105263157,300.0,-300.0,600.0,left,right,,Nick,1,2021_Jul_19_1956,compare_lines,2021.2.0,59.995524333880994,
diagonal1,0.0,0.0,0.0,0.0,12.0,2.0,50.0,2.0,,,,,,,,,,,,,161.7868232,None,162.29542859999998,None,163.29555620000002,None,down,36.1231464,163.79563819999998,None,None,None,None,2.1052631578947367,2.1052631578947367,300.0,-300.0,600.0,left,right,,Nick,1,2021_Jul_19_1956,compare_lines,2021.2.0,59.995524333880994,
vertical,0.0,0.0,0.0,0.0,12.0,3.0,51.0,1.0,,,,,,,,,,,,,199.9474082,None,200.45995729999999,None,201.45999919999997,None,down,0.6495385999999712,201.9599478,None,None,None,None,2.8947368421052633,2.8947368421052633,300.0,-300.0,600.0,left,right,,Nick,1,2021_Jul_19_1956,compare_lines,2021.2.0,59.995524333880994,
horizontal,0.0,0.0,0.0,0.0,13.0,0.0,52.0,0.0,,,,,,,,,,,,,202.6336621,None,203.14307250000002,None,204.14319369999998,None,left,0.7734145999999669,204.643143,None,None,None,None,2.421052631578948,2.421052631578948,300.0,-300.0,600.0,right,left,,Nick,1,2021_Jul_19_1956,compare_lines,2021.2.0,59.995524333880994,
diagonal2,0.0,0.0,0.0,0.0,13.0,1.0,53.0,3.0,,,,,,,,,,,,,205.450965,None,205.95967589999998,None,206.9596419,None,right,0.3806737000000453,207.45977770000002,None,None,None,None,1.0,3.3684210526315788,300.0,-300.0,600.0,right,left,,Nick,1,2021_Jul_19_1956,compare_lines,2021.2.0,59.995524333880994,
diagonal1,0.0,0.0,0.0,0.0,13.0,2.0,54.0,2.0,,,,,,,,,,,,,207.8676897,None,208.37616579999997,None,209.3761758,None,right,0.6742062000000146,209.8761965,None,None,None,None,1.4736842105263157,2.421052631578948,300.0,-300.0,600.0,left,right,,Nick,1,2021_Jul_19_1956,compare_lines,2021.2.0,59.995524333880994,
vertical,0.0,0.0,0.0,0.0,13.0,3.0,55.0,1.0,,,,,,,,,,,,,210.5847166,None,211.09275029999998,None,212.09276440000002,None,left,0.9831183999999666,212.5926285,None,None,None,None,3.5263157894736836,1.3157894736842106,300.0,-300.0,600.0,right,left,,Nick,1,2021_Jul_19_1956,compare_lines,2021.2.0,59.995524333880994,
vertical,0.0,0.0,0.0,0.0,14.0,0.0,56.0,1.0,,,,,,,,,,,,,213.59650640000004,None,214.10920240000002,None,215.1091647,None,right,0.7895424999999818,215.6092097,None,None,None,None,1.3157894736842106,2.736842105263157,300.0,-300.0,600.0,right,left,,Nick,1,2021_Jul_19_1956,compare_lines,2021.2.0,59.995524333880994,
diagonal2,0.0,0.0,0.0,0.0,14.0,1.0,57.0,3.0,,,,,,,,,,,,,216.4311956,None,216.9422851,None,217.9423463,None,down,0.6605609999999729,218.44266699999997,None,None,None,None,3.210526315789473,3.210526315789473,300.0,-300.0,600.0,left,right,,Nick,1,2021_Jul_19_1956,compare_lines,2021.2.0,59.995524333880994,
horizontal,0.0,0.0,0.0,0.0,14.0,2.0,58.0,0.0,,,,,,,,,,,,,219.13214810000002,None,219.6423008,None,220.6421588,None,down,0.6889671000000135,221.14213159999997,None,None,None,None,3.5263157894736836,3.5263157894736836,300.0,-300.0,600.0,right,left,,Nick,1,2021_Jul_19_1956,compare_lines,2021.2.0,59.995524333880994,
diagonal1,0.0,0.0,0.0,0.0,14.0,3.0,59.0,2.0,,,,,,,,,,,,,221.8651763,None,222.3752869,None,223.3757829,None,down,1.017989,223.8753213,None,None,None,None,3.052631578947368,3.052631578947368,300.0,-300.0,600.0,left,right,,Nick,1,2021_Jul_19_1956,compare_lines,2021.2.0,59.995524333880994,
vertical,0.0,0.0,0.0,0.0,15.0,0.0,60.0,1.0,,,,,,,,,,,,,224.91213,None,225.42522049999997,None,226.4253766,None,left,0.44285780000001296,226.9255174,None,None,None,None,3.052631578947368,1.1578947368421053,300.0,-300.0,600.0,left,right,,Nick,1,2021_Jul_19_1956,compare_lines,2021.2.0,59.995524333880994,
diagonal1,0.0,0.0,0.0,0.0,15.0,1.0,61.0,2.0,,,,,,,,,,,,,227.3958568,None,227.90840429999997,None,228.90822070000002,None,down,0.7129964999999743,229.40820129999997,None,None,None,None,2.1052631578947367,2.1052631578947367,300.0,-300.0,600.0,right,left,,Nick,1,2021_Jul_19_1956,compare_lines,2021.2.0,59.995524333880994,
diagonal2,0.0,0.0,0.0,0.0,15.0,2.0,62.0,3.0,,,,,,,,,,,,,230.1483018,None,230.65814569999998,None,231.65833679999997,None,left,0.39987089999999625,232.1583137,None,None,None,None,3.5263157894736836,1.631578947368421,300.0,-300.0,600.0,right,left,,Nick,1,2021_Jul_19_1956,compare_lines,2021.2.0,59.995524333880994,
horizontal,0.0,0.0,0.0,0.0,15.0,3.0,63.0,0.0,,,,,,,,,,,,,232.5818788,None,233.09145139999998,None,234.09144270000002,None,left,0.9531471000000238,234.5914303,None,None,None,None,1.1578947368421053,1.1578947368421053,300.0,-300.0,600.0,left,right,,Nick,1,2021_Jul_19_1956,compare_lines,2021.2.0,59.995524333880994,
vertical,0.0,0.0,0.0,0.0,16.0,0.0,64.0,1.0,,,,,,,,,,,,,235.5647361,None,236.07453349999997,None,237.07460170000002,None,down,0.8474911000000134,237.57457390000002,None,None,None,None,1.7894736842105263,1.7894736842105263,300.0,-300.0,600.0,right,left,,Nick,1,2021_Jul_19_1956,compare_lines,2021.2.0,59.995524333880994,
diagonal2,0.0,0.0,0.0,0.0,16.0,1.0,65.0,3.0,,,,,,,,,,,,,238.4479661,None,238.96090829999997,None,239.95800579999997,None,left,1.0641145000000165,240.4577271,None,None,None,None,2.421052631578948,1.631578947368421,300.0,-300.0,600.0,left,right,,Nick,1,2021_Jul_19_1956,compare_lines,2021.2.0,59.995524333880994,
diagonal1,0.0,0.0,0.0,0.0,16.0,2.0,66.0,2.0,,,,,,,,,,,,,241.5453782,None,242.05809720000002,None,243.05771699999997,None,right,0.6292784999999981,243.5574808,None,None,None,None,1.0,1.631578947368421,300.0,-300.0,600.0,right,left,,Nick,1,2021_Jul_19_1956,compare_lines,2021.2.0,59.995524333880994,
horizontal,0.0,0.0,0.0,0.0,16.0,3.0,67.0,0.0,,,,,,,,,,,,,244.2118336,None,244.72417939999997,None,245.7241381,None,left,0.5338748000000351,246.22407499999997,None,None,None,None,3.5263157894736836,1.1578947368421053,300.0,-300.0,600.0,left,right,,Nick,1,2021_Jul_19_1956,compare_lines,2021.2.0,59.995524333880994,
diagonal2,0.0,0.0,0.0,0.0,17.0,0.0,68.0,3.0,,,,,,,,,,,,,246.78106949999997,None,247.2904863,None,248.29055010000002,None,left,0.7849585000000161,248.79054479999996,None,None,None,None,1.631578947368421,1.1578947368421053,300.0,-300.0,600.0,right,left,,Nick,1,2021_Jul_19_1956,compare_lines,2021.2.0,59.995524333880994,
vertical,0.0,0.0,0.0,0.0,17.0,1.0,69.0,1.0,,,,,,,,,,,,,249.59731630000005,None,250.10706250000004,None,251.10707629999996,None,right,0.6559818000000632,251.60705390000004,None,None,None,None,1.0,2.5789473684210527,300.0,-300.0,600.0,right,left,,Nick,1,2021_Jul_19_1956,compare_lines,2021.2.0,59.995524333880994,
horizontal,0.0,0.0,0.0,0.0,17.0,2.0,70.0,0.0,,,,,,,,,,,,,252.2967798,None,252.8071759,None,253.80676250000005,None,left,0.3505415999999286,254.30689779999994,None,None,None,None,3.684210526315789,1.631578947368421,300.0,-300.0,600.0,right,left,,Nick,1,2021_Jul_19_1956,compare_lines,2021.2.0,59.995524333880994,
diagonal1,0.0,0.0,0.0,0.0,17.0,3.0,71.0,2.0,,,,,,,,,,,,,254.67761800000002,None,255.19069340000004,None,256.19062549999995,None,down,0.7263808000000154,256.69008479999997,None,None,None,None,1.9473684210526316,2.263157894736842,300.0,-300.0,600.0,right,left,,Nick,1,2021_Jul_19_1956,compare_lines,2021.2.0,59.995524333880994,
diagonal1,0.0,0.0,0.0,0.0,18.0,0.0,72.0,2.0,,,,,,,,,,,,,257.44678530000004,None,257.95656419999995,None,258.9567225,None,down,0.6692851999999903,259.4565915,None,None,None,None,1.4736842105263157,1.4736842105263157,300.0,-300.0,600.0,left,right,,Nick,1,2021_Jul_19_1956,compare_lines,2021.2.0,59.995524333880994,
diagonal2,0.0,0.0,0.0,0.0,18.0,1.0,73.0,3.0,,,,,,,,,,,,,260.14518599999997,None,260.65647789999997,None,261.656456,None,right,0.4541546000000381,262.15641569999997,None,None,None,None,1.7894736842105263,1.7894736842105263,300.0,-300.0,600.0,left,right,,Nick,1,2021_Jul_19_1956,compare_lines,2021.2.0,59.995524333880994,
horizontal,0.0,0.0,0.0,0.0,18.0,2.0,74.0,0.0,,,,,,,,,,,,,262.64350740000003,None,263.1563862,None,264.15634429999994,None,down,0.6142464000000699,264.65630359999994,None,None,None,None,2.1052631578947367,2.1052631578947367,300.0,-300.0,600.0,left,right,,Nick,1,2021_Jul_19_1956,compare_lines,2021.2.0,59.995524333880994,
vertical,0.0,0.0,0.0,0.0,18.0,3.0,75.0,1.0,,,,,,,,,,,,,265.294257,None,265.8060953,None,266.8061786,None,down,0.6288641000001007,267.30611700000003,None,None,None,None,2.1052631578947367,1.1578947368421053,300.0,-300.0,600.0,right,left,,Nick,1,2021_Jul_19_1956,compare_lines,2021.2.0,59.995524333880994,
vertical,0.0,0.0,0.0,0.0,19.0,0.0,76.0,1.0,,,,,,,,,,,,,267.96310930000004,None,268.4727555,None,269.4726542,None,left,0.9837925000000496,269.9726768,None,None,None,None,2.5789473684210527,2.5789473684210527,300.0,-300.0,600.0,right,left,,Nick,1,2021_Jul_19_1956,compare_lines,2021.2.0,59.995524333880994,
diagonal1,0.0,0.0,0.0,0.0,19.0,1.0,77.0,2.0,,,,,,,,,,,,,270.97600270000004,None,271.4892703,None,272.4892232,None,down,0.7750044000000571,272.98913,None,None,None,None,2.736842105263157,2.263157894736842,300.0,-300.0,600.0,left,right,,Nick,1,2021_Jul_19_1956,compare_lines,2021.2.0,59.995524333880994,
diagonal2,0.0,0.0,0.0,0.0,19.0,2.0,78.0,3.0,,,,,,,,,,,,,273.79677710000004,None,274.305724,None,275.3057505,None,left,0.5532977999999957,275.8060023,None,None,None,None,2.5789473684210527,1.3157894736842106,300.0,-300.0,600.0,left,right,,Nick,1,2021_Jul_19_1956,compare_lines,2021.2.0,59.995524333880994,
horizontal,0.0,0.0,0.0,0.0,19.0,3.0,79.0,0.0,,,,,,,,,,,,,276.3794975,None,276.88880639999996,None,277.88889650000004,None,left,0.5488619000000199,278.38887229999995,None,None,None,None,3.3684210526315788,1.4736842105263157,300.0,-300.0,600.0,right,left,,Nick,1,2021_Jul_19_1956,compare_lines,2021.2.0,59.995524333880994,
vertical,0.0,0.0,0.0,0.0,20.0,0.0,80.0,1.0,,,,,,,,,,,,,278.96250310000005,None,279.4720855,None,280.47205319999995,None,right,0.7419170000000577,280.9720335,None,None,None,None,1.4736842105263157,1.4736842105263157,300.0,-300.0,600.0,right,left,,Nick,1,2021_Jul_19_1956,compare_lines,2021.2.0,59.995524333880994,
diagonal2,0.0,0.0,0.0,0.0,20.0,1.0,81.0,3.0,,,,,,,,,,,,,281.7455164,None,282.2558926,None,283.2552016,None,down,1.0187683000000334,283.7551887,None,None,None,None,2.421052631578948,2.8947368421052633,300.0,-300.0,600.0,right,left,,Nick,1,2021_Jul_19_1956,compare_lines,2021.2.0,59.995524333880994,
diagonal1,0.0,0.0,0.0,0.0,20.0,2.0,82.0,2.0,,,,,,,,,,,,,284.80807209999995,None,285.3217633,None,286.32170720000005,None,left,0.6927490000000489,286.8216451,None,None,None,None,2.421052631578948,1.7894736842105263,300.0,-300.0,600.0,left,right,,Nick,1,2021_Jul_19_1956,compare_lines,2021.2.0,59.995524333880994,
horizontal,0.0,0.0,0.0,0.0,20.0,3.0,83.0,0.0,,,,,,,,,,,,,287.54503880000004,None,288.05482,None,289.05488669999994,None,left,0.5031766999999263,289.5548534,None,None,None,None,3.5263157894736836,1.0,300.0,-300.0,600.0,right,left,,Nick,1,2021_Jul_19_1956,compare_lines,2021.2.0,59.995524333880994,
horizontal,0.0,0.0,0.0,0.0,21.0,0.0,84.0,0.0,,,,,,,,,,,,,290.07564019999995,None,290.5881533,None,291.58807900000005,None,right,0.4891778999999588,292.0880057,None,None,None,None,2.263157894736842,3.052631578947368,300.0,-300.0,600.0,left,right,,Nick,1,2021_Jul_19_1956,compare_lines,2021.2.0,59.995524333880994,
vertical,0.0,0.0,0.0,0.0,21.0,1.0,85.0,1.0,,,,,,,,,,,,,292.6116115000001,None,293.12118560000005,None,294.12131159999996,None,left,0.43731900000000223,294.621229,None,None,None,None,3.684210526315789,2.421052631578948,300.0,-300.0,600.0,right,left,,Nick,1,2021_Jul_19_1956,compare_lines,2021.2.0,59.995524333880994,
diagonal2,0.0,0.0,0.0,0.0,21.0,2.0,86.0,3.0,,,,,,,,,,,,,295.0917065000001,None,295.60445899999996,None,296.60442829999994,None,right,0.5457771000000093,297.1043791,None,None,None,None,2.736842105263157,3.052631578947368,300.0,-300.0,600.0,left,right,,Nick,1,2021_Jul_19_1956,compare_lines,2021.2.0,59.995524333880994,
diagonal1,0.0,0.0,0.0,0.0,21.0,3.0,87.0,2.0,,,,,,,,,,,,,297.6754049000001,None,298.18756390000004,None,299.1876332,None,right,0.6702321999999867,299.68761449999994,None,None,None,None,1.9473684210526316,1.9473684210526316,300.0,-300.0,600.0,right,left,,Nick,1,2021_Jul_19_1956,compare_lines,2021.2.0,59.995524333880994,
vertical,0.0,0.0,0.0,0.0,22.0,0.0,88.0,1.0,,,,,,,,,,,,,300.3775346000001,None,300.8873839,None,301.8875046,None,right,0.389979100000005,302.38759899999997,None,None,None,None,1.1578947368421053,2.8947368421052633,300.0,-300.0,600.0,left,right,,Nick,1,2021_Jul_19_1956,compare_lines,2021.2.0,59.995524333880994,
diagonal1,0.0,0.0,0.0,0.0,22.0,1.0,89.0,2.0,,,,,,,,,,,,,302.810856,None,303.32072669999997,None,304.3206329,None,right,0.5974779000000581,304.82079949999996,None,None,None,None,3.5263157894736836,3.3684210526315788,300.0,-300.0,600.0,left,right,,Nick,1,2021_Jul_19_1956,compare_lines,2021.2.0,59.995524333880994,
diagonal2,0.0,0.0,0.0,0.0,22.0,2.0,90.0,3.0,,,,,,,,,,,,,305.4452587,None,305.9539742,None,306.95385389999996,None,down,0.7747739999999794,307.45382249999994,None,None,None,None,3.3684210526315788,2.5789473684210527,300.0,-300.0,600.0,left,right,,Nick,1,2021_Jul_19_1956,compare_lines,2021.2.0,59.995524333880994,
horizontal,0.0,0.0,0.0,0.0,22.0,3.0,91.0,0.0,,,,,,,,,,,,,308.2590876999999,None,308.7703565,None,309.7703211,None,right,0.6033351000000948,310.2703191,None,None,None,None,1.1578947368421053,1.3157894736842106,300.0,-300.0,600.0,right,left,,Nick,1,2021_Jul_19_1956,compare_lines,2021.2.0,59.995524333880994,
diagonal2,0.0,0.0,0.0,0.0,23.0,0.0,92.0,3.0,,,,,,,,,,,,,310.907208,None,311.42022919999994,None,312.420188,None,right,0.4968734000000268,312.92017319999997,None,None,None,None,1.631578947368421,2.263157894736842,300.0,-300.0,600.0,left,right,,Nick,1,2021_Jul_19_1956,compare_lines,2021.2.0,59.995524333880994,
vertical,0.0,0.0,0.0,0.0,23.0,1.0,93.0,1.0,,,,,,,,,,,,,313.4432991000001,None,313.9533084,None,314.95334840000004,None,left,0.5023180000000593,315.45337379999995,None,None,None,None,3.684210526315789,1.4736842105263157,300.0,-300.0,600.0,left,right,,Nick,1,2021_Jul_19_1956,compare_lines,2021.2.0,59.995524333880994,
horizontal,0.0,0.0,0.0,0.0,23.0,2.0,94.0,0.0,,,,,,,,,,,,,315.9741965,None,316.48682189999994,None,317.486552,None,right,0.3354380000000674,317.9865467,None,None,None,None,1.1578947368421053,4.0,300.0,-300.0,600.0,left,right,,Nick,1,2021_Jul_19_1956,compare_lines,2021.2.0,59.995524333880994,
diagonal1,0.0,0.0,0.0,0.0,23.0,3.0,95.0,2.0,,,,,,,,,,,,,318.34228019999995,None,318.85352670000003,None,319.8531417,None,down,0.6619484000000284,320.3529541,None,None,None,None,1.7894736842105263,1.7894736842105263,300.0,-300.0,600.0,right,left,,Nick,1,2021_Jul_19_1956,compare_lines,2021.2.0,59.995524333880994,
vertical,0.0,0.0,0.0,0.0,24.0,0.0,96.0,1.0,,,,,,,,,,,,,321.04323139999997,None,321.55308729999996,None,322.5529777,None,left,0.40172080000002097,323.0529687,None,None,None,None,2.1052631578947367,1.631578947368421,300.0,-300.0,600.0,right,left,,Nick,1,2021_Jul_19_1956,compare_lines,2021.2.0,59.995524333880994,
diagonal1,0.0,0.0,0.0,0.0,24.0,1.0,97.0,2.0,,,,,,,,,,,,,323.47370639999997,None,323.98607599999997,None,324.9861322,None,down,0.6964254999999184,325.486156,None,None,None,None,1.3157894736842106,1.3157894736842106,300.0,-300.0,600.0,left,right,,Nick,1,2021_Jul_19_1956,compare_lines,2021.2.0,59.995524333880994,
horizontal,0.0,0.0,0.0,0.0,24.0,2.0,98.0,0.0,,,,,,,,,,,,,326.20895989999997,None,326.7196449,None,327.7192977,None,down,0.7750633000000562,328.21926549999995,None,None,None,None,2.8947368421052633,3.210526315789473,300.0,-300.0,600.0,right,left,,Nick,1,2021_Jul_19_1956,compare_lines,2021.2.0,59.995524333880994,
diagonal2,0.0,0.0,0.0,0.0,24.0,3.0,99.0,3.0,,,,,,,,,,,,,329.0296961,None,329.5358388,None,330.5358011,None,left,10.286679100000015,331.0356707,None,None,None,None,3.052631578947368,1.631578947368421,300.0,-300.0,600.0,right,left,,Nick,1,2021_Jul_19_1956,compare_lines,2021.2.0,59.995524333880994,
vertical,0.0,0.0,0.0,0.0,25.0,0.0,100.0,1.0,,,,,,,,,,,,,341.3558659,None,341.8684764,None,342.8684712,None,right,0.7826087999999345,343.3684692,None,None,None,None,1.3157894736842106,1.3157894736842106,300.0,-300.0,600.0,right,left,,Nick,1,2021_Jul_19_1956,compare_lines,2021.2.0,59.995524333880994,
diagonal2,0.0,0.0,0.0,0.0,25.0,1.0,101.0,3.0,,,,,,,,,,,,,344.1725939,None,344.6849765,None,345.6849299,None,down,0.7463986000000205,346.1850575,None,None,None,None,4.0,4.0,300.0,-300.0,600.0,right,left,,Nick,1,2021_Jul_19_1956,compare_lines,2021.2.0,59.995524333880994,
horizontal,0.0,0.0,0.0,0.0,25.0,2.0,102.0,0.0,,,,,,,,,,,,,346.9580035,None,347.46817330000005,None,348.46840860000003,None,left,0.5289935999999216,348.96806439999995,None,None,None,None,3.052631578947368,2.421052631578948,300.0,-300.0,600.0,right,left,,Nick,1,2021_Jul_19_1956,compare_lines,2021.2.0,59.995524333880994,
diagonal1,0.0,0.0,0.0,0.0,25.0,3.0,103.0,2.0,,,,,,,,,,,,,349.5222982,None,350.03470169999997,None,351.03463719999996,None,right,0.7013302000000294,351.5344574,None,None,None,None,1.7894736842105263,1.631578947368421,300.0,-300.0,600.0,right,left,,Nick,1,2021_Jul_19_1956,compare_lines,2021.2.0,59.995524333880994,
diagonal2,0.0,0.0,0.0,0.0,26.0,0.0,104.0,3.0,,,,,,,,,,,,,352.2590749000001,None,352.7678599,None,353.7677951,None,left,0.41234320000000935,354.2678044,None,None,None,None,2.421052631578948,1.0,300.0,-300.0,600.0,right,left,,Nick,1,2021_Jul_19_1956,compare_lines,2021.2.0,59.995524333880994,
horizontal,0.0,0.0,0.0,0.0,26.0,1.0,105.0,0.0,,,,,,,,,,,,,354.70536839999994,None,355.217727,None,356.21773179999997,None,down,0.58223559999999,356.71764549999995,None,None,None,None,1.1578947368421053,1.1578947368421053,300.0,-300.0,600.0,left,right,,Nick,1,2021_Jul_19_1956,compare_lines,2021.2.0,59.995524333880994,
vertical,0.0,0.0,0.0,0.0,26.0,2.0,106.0,1.0,,,,,,,,,,,,,357.3254601000001,None,357.83423020000004,None,358.8341873,None,left,0.5252252999999882,359.3348298,None,None,None,None,3.3684210526315788,1.9473684210526316,300.0,-300.0,600.0,left,right,,Nick,1,2021_Jul_19_1956,compare_lines,2021.2.0,59.995524333880994,
diagonal1,0.0,0.0,0.0,0.0,26.0,3.0,107.0,2.0,,,,,,,,,,,,,359.8898818,None,360.4006344,None,361.4007214,None,left,0.6229460000000699,361.90073520000004,None,None,None,None,2.8947368421052633,2.8947368421052633,300.0,-300.0,600.0,right,left,,Nick,1,2021_Jul_19_1956,compare_lines,2021.2.0,59.995524333880994,
diagonal2,0.0,0.0,0.0,0.0,27.0,0.0,108.0,3.0,,,,,,,,,,,,,362.5584263,None,363.06726510000004,None,364.0672344,None,down,0.5964609999999766,364.5674498,None,None,None,None,1.4736842105263157,1.7894736842105263,300.0,-300.0,600.0,right,left,,Nick,1,2021_Jul_19_1956,compare_lines,2021.2.0,59.995524333880994,
diagonal1,0.0,0.0,0.0,0.0,27.0,1.0,109.0,2.0,,,,,,,,,,,,,365.1906871000001,None,365.7004175,None,366.70037599999995,None,down,0.6323244999999815,367.20032109999994,None,None,None,None,1.9473684210526316,2.8947368421052633,300.0,-300.0,600.0,right,left,,Nick,1,2021_Jul_19_1956,compare_lines,2021.2.0,59.995524333880994,
vertical,0.0,0.0,0.0,0.0,27.0,2.0,110.0,1.0,,,,,,,,,,,,,367.8573401,None,368.36709190000005,None,369.36687,None,right,0.7707627999999431,369.8668349,None,None,None,None,2.736842105263157,2.736842105263157,300.0,-300.0,600.0,left,right,,Nick,1,2021_Jul_19_1956,compare_lines,2021.2.0,59.995524333880994,
horizontal,0.0,0.0,0.0,0.0,27.0,3.0,111.0,0.0,,,,,,,,,,,,,370.6706829,None,371.1835593,None,372.1833913,None,down,0.5288907999999992,372.68336429999994,None,None,None,None,1.1578947368421053,1.0,300.0,-300.0,600.0,left,right,,Nick,1,2021_Jul_19_1956,compare_lines,2021.2.0,59.995524333880994,
vertical,0.0,0.0,0.0,0.0,28.0,0.0,112.0,1.0,,,,,,,,,,,,,373.2398713,None,373.750472,None,374.75008429999997,None,left,0.506393600000024,375.249932,None,None,None,None,3.052631578947368,3.052631578947368,300.0,-300.0,600.0,right,left,,Nick,1,2021_Jul_19_1956,compare_lines,2021.2.0,59.995524333880994,
horizontal,0.0,0.0,0.0,0.0,28.0,1.0,113.0,0.0,,,,,,,,,,,,,375.7893571,None,376.2999212,None,377.29983739999994,None,down,0.7143111999999974,377.799818,None,None,None,None,3.842105263157895,3.842105263157895,300.0,-300.0,600.0,right,left,,Nick,1,2021_Jul_19_1956,compare_lines,2021.2.0,59.995524333880994,
diagonal1,0.0,0.0,0.0,0.0,28.0,2.0,114.0,2.0,,,,,,,,,,,,,378.5408567,None,379.0496013,None,380.0496817,None,left,0.4457835000000614,380.549596,None,None,None,None,3.3684210526315788,3.052631578947368,300.0,-300.0,600.0,right,left,,Nick,1,2021_Jul_19_1956,compare_lines,2021.2.0,59.995524333880994,
diagonal2,0.0,0.0,0.0,0.0,28.0,3.0,115.0,3.0,,,,,,,,,,,,,381.0207141,None,381.53275160000004,None,382.53280149999995,None,right,0.6543280000000777,383.03276950000003,None,None,None,None,1.4736842105263157,1.1578947368421053,300.0,-300.0,600.0,right,left,,Nick,1,2021_Jul_19_1956,compare_lines,2021.2.0,59.995524333880994,
diagonal2,0.0,0.0,0.0,0.0,29.0,0.0,116.0,3.0,,,,,,,,,,,,,383.7230897,None,384.232858,None,385.2330638,None,left,0.5326693999999179,385.73262489999996,None,None,None,None,4.0,1.9473684210526316,300.0,-300.0,600.0,right,left,,Nick,1,2021_Jul_19_1956,compare_lines,2021.2.0,59.995524333880994,
horizontal,0.0,0.0,0.0,0.0,29.0,1.0,117.0,0.0,,,,,,,,,,,,,386.2896492,None,386.79928049999995,None,387.79921240000004,None,right,0.4263416999999663,388.29913819999996,None,None,None,None,1.0,3.210526315789473,300.0,-300.0,600.0,left,right,,Nick,1,2021_Jul_19_1956,compare_lines,2021.2.0,59.995524333880994,
vertical,0.0,0.0,0.0,0.0,29.0,2.0,118.0,1.0,,,,,,,,,,,,,388.7559137,None,389.2656232,None,390.26571399999995,None,down,0.5655512999999246,390.7656946,None,None,None,None,2.421052631578948,2.421052631578948,300.0,-300.0,600.0,right,left,,Nick,1,2021_Jul_19_1956,compare_lines,2021.2.0,59.995524333880994,
diagonal1,0.0,0.0,0.0,0.0,29.0,3.0,119.0,2.0,,,,,,,,,,,,,391.3560026,None,391.86560019999996,None,392.8655388,None,left,0.4633519000000206,393.36551719999994,None,None,None,None,4.0,3.684210526315789,300.0,-300.0,600.0,right,left,,Nick,1,2021_Jul_19_1956,compare_lines,2021.2.0,59.995524333880994,
horizontal,0.0,0.0,0.0,0.0,30.0,0.0,120.0,0.0,,,,,,,,,,,,,393.8532776,None,394.36534880000005,None,395.36539120000003,None,right,0.394243500000016,395.8653049,None,None,None,None,4.0,4.0,300.0,-300.0,600.0,left,right,,Nick,1,2021_Jul_19_1956,compare_lines,2021.2.0,59.995524333880994,
diagonal1,0.0,0.0,0.0,0.0,30.0,1.0,121.0,2.0,,,,,,,,,,,,,396.2887945,None,396.7988042,None,397.7985564,None,right,0.5993520999999191,398.29858310000003,None,None,None,None,2.5789473684210527,3.5263157894736836,300.0,-300.0,600.0,right,left,,Nick,1,2021_Jul_19_1956,compare_lines,2021.2.0,59.995524333880994,
vertical,0.0,0.0,0.0,0.0,30.0,2.0,122.0,1.0,,,,,,,,,,,,,398.922183,None,399.43187340000003,None,400.43194250000005,None,left,0.4239175000000159,400.93182870000004,None,None,None,None,3.684210526315789,2.736842105263157,300.0,-300.0,600.0,right,left,,Nick,1,2021_Jul_19_1956,compare_lines,2021.2.0,59.995524333880994,
diagonal2,0.0,0.0,0.0,0.0,30.0,3.0,123.0,3.0,,,,,,,,,,,,,401.3884763,None,401.8983023,None,402.89829779999997,None,right,0.34782800000004954,403.3982352,None,None,None,None,1.3157894736842106,3.210526315789473,300.0,-300.0,600.0,left,right,,Nick,1,2021_Jul_19_1956,compare_lines,2021.2.0,59.995524333880994,
horizontal,0.0,0.0,0.0,0.0,31.0,0.0,124.0,0.0,,,,,,,,,,,,,403.7717707,None,404.28154539999997,None,405.28149590000004,None,left,0.7833724000000757,405.781454,None,None,None,None,3.210526315789473,2.421052631578948,300.0,-300.0,600.0,right,left,,Nick,1,2021_Jul_19_1956,compare_lines,2021.2.0,59.995524333880994,
diagonal1,0.0,0.0,0.0,0.0,31.0,1.0,125.0,2.0,,,,,,,,,,,,,406.5877343,None,407.0980365,None,408.0979987,None,down,0.666399599999977,408.5979511,None,None,None,None,2.736842105263157,2.8947368421052633,300.0,-300.0,600.0,left,right,,Nick,1,2021_Jul_19_1956,compare_lines,2021.2.0,59.995524333880994,
vertical,0.0,0.0,0.0,0.0,31.0,2.0,126.0,1.0,,,,,,,,,,,,,409.28859669999997,None,409.79783979999996,None,410.79799729999996,None,right,0.5996441999999433,411.29799799999995,None,None,None,None,2.263157894736842,2.8947368421052633,300.0,-300.0,600.0,left,right,,Nick,1,2021_Jul_19_1956,compare_lines,2021.2.0,59.995524333880994,
diagonal2,0.0,0.0,0.0,0.0,31.0,3.0,127.0,3.0,,,,,,,,,,,,,411.92150760000004,None,412.4311121,None,413.4314096,None,left,0.5796126999999842,413.93095639999996,None,None,None,None,4.0,2.421052631578948,300.0,-300.0,600.0,left,right,,Nick,1,2021_Jul_19_1956,compare_lines,2021.2.0,59.995524333880994,
diagonal1,0.0,0.0,0.0,0.0,32.0,0.0,128.0,2.0,,,,,,,,,,,,,414.5377812,None,415.0474674,None,416.04757820000003,None,right,0.6361373999999387,416.54746959999994,None,None,None,None,2.263157894736842,3.210526315789473,300.0,-300.0,600.0,right,left,,Nick,1,2021_Jul_19_1956,compare_lines,2021.2.0,59.995524333880994,
diagonal2,0.0,0.0,0.0,0.0,32.0,1.0,129.0,3.0,,,,,,,,,,,,,417.2016014,None,417.7141489,None,418.71400769999997,None,right,0.4604677999999467,419.21398659999994,None,None,None,None,1.3157894736842106,3.052631578947368,300.0,-300.0,600.0,left,right,,Nick,1,2021_Jul_19_1956,compare_lines,2021.2.0,59.995524333880994,
vertical,0.0,0.0,0.0,0.0,32.0,2.0,130.0,1.0,,,,,,,,,,,,,419.70433360000004,None,420.21394530000003,None,421.2139471,None,left,0.4666989999999487,421.71394119999997,None,None,None,None,2.8947368421052633,1.7894736842105263,300.0,-300.0,600.0,right,left,,Nick,1,2021_Jul_19_1956,compare_lines,2021.2.0,59.995524333880994,
horizontal,0.0,0.0,0.0,0.0,32.0,3.0,131.0,0.0,,,,,,,,,,,,,422.2036839,None,422.7137952,None,423.7137403,None,down,0.5355164000000059,424.21373609999995,None,None,None,None,1.9473684210526316,1.3157894736842106,300.0,-300.0,600.0,right,left,,Nick,1,2021_Jul_19_1956,compare_lines,2021.2.0,59.995524333880994,
vertical,0.0,0.0,0.0,0.0,33.0,0.0,132.0,1.0,,,,,,,,,,,,,424.77265520000003,None,425.28069009999996,None,426.28015550000003,None,right,0.7075290999999879,426.78023649999994,None,None,None,None,2.263157894736842,4.0,300.0,-300.0,600.0,right,left,,Nick,1,2021_Jul_19_1956,compare_lines,2021.2.0,59.995524333880994,
horizontal,0.0,0.0,0.0,0.0,33.0,1.0,133.0,0.0,,,,,,,,,,,,,427.5213244,None,428.0301699,None,429.0301347,None,right,0.5154023000000052,429.5306771,None,None,None,None,1.631578947368421,3.3684210526315788,300.0,-300.0,600.0,right,left,,Nick,1,2021_Jul_19_1956,compare_lines,2021.2.0,59.995524333880994,
diagonal2,0.0,0.0,0.0,0.0,33.0,2.0,134.0,3.0,,,,,,,,,,,,,430.0703859,None,430.57999609999996,None,431.58000239999996,None,left,0.5103665999999976,432.0800446,None,None,None,None,3.842105263157895,2.421052631578948,300.0,-300.0,600.0,left,right,,Nick,1,2021_Jul_19_1956,compare_lines,2021.2.0,59.995524333880994,
diagonal1,0.0,0.0,0.0,0.0,33.0,3.0,135.0,2.0,,,,,,,,,,,,,432.62003200000004,None,433.12999099999996,None,434.12983119999996,None,down,0.8334796999999979,434.6298039,None,None,None,None,3.3684210526315788,3.3684210526315788,300.0,-300.0,600.0,right,left,,Nick,1,2021_Jul_19_1956,compare_lines,2021.2.0,59.995524333880994,
diagonal1,0.0,0.0,0.0,0.0,34.0,0.0,136.0,2.0,,,,,,,,,,,,,435.4864777,None,435.9963813,None,436.9962906,None,left,1.6829377999999906,437.4963134,None,None,None,None,3.842105263157895,3.842105263157895,300.0,-300.0,600.0,right,left,,Nick,1,2021_Jul_19_1956,compare_lines,2021.2.0,59.995524333880994,
horizontal,0.0,0.0,0.0,0.0,34.0,1.0,137.0,0.0,,,,,,,,,,,,,439.1999557,None,439.7128294,None,440.71277819999995,None,left,0.4904734000000417,441.2127171,None,None,None,None,3.052631578947368,1.9473684210526316,300.0,-300.0,600.0,left,right,,Nick,1,2021_Jul_19_1956,compare_lines,2021.2.0,59.995524333880994,
diagonal2,0.0,0.0,0.0,0.0,34.0,2.0,138.0,3.0,,,,,,,,,,,,,441.7361801,None,442.2459779,None,443.2459631,None,down,0.9473807999999052,443.7459461,None,None,None,None,2.736842105263157,2.736842105263157,300.0,-300.0,600.0,right,left,,Nick,1,2021_Jul_19_1956,compare_lines,2021.2.0,59.995524333880994,
vertical,0.0,0.0,0.0,0.0,34.0,3.0,139.0,1.0,,,,,,,,,,,,,444.7193193,None,445.22918239999996,None,446.22908950000004,None,right,0.4746522000000368,446.72907319999996,None,None,None,None,2.8947368421052633,4.0,300.0,-300.0,600.0,left,right,,Nick,1,2021_Jul_19_1956,compare_lines,2021.2.0,59.995524333880994,
vertical,0.0,0.0,0.0,0.0,35.0,0.0,140.0,1.0,,,,,,,,,,,,,447.2366016,None,447.7457681,None,448.74577270000003,None,down,0.6398341999999957,449.24622949999997,None,None,None,None,1.3157894736842106,1.3157894736842106,300.0,-300.0,600.0,right,left,,Nick,1,2021_Jul_19_1956,compare_lines,2021.2.0,59.995524333880994,
diagonal2,0.0,0.0,0.0,0.0,35.0,1.0,141.0,3.0,,,,,,,,,,,,,449.91900599999997,None,450.4287553,None,451.42878949999994,None,down,0.7013006000000814,451.92876359999997,None,None,None,None,2.1052631578947367,2.1052631578947367,300.0,-300.0,600.0,left,right,,Nick,1,2021_Jul_19_1956,compare_lines,2021.2.0,59.995524333880994,
horizontal,0.0,0.0,0.0,0.0,35.0,2.0,142.0,0.0,,,,,,,,,,,,,452.65206070000005,None,453.1619317,None,454.16226309999996,None,right,0.38436620000004496,454.66196210000004,None,None,None,None,1.4736842105263157,3.5263157894736836,300.0,-300.0,600.0,left,right,,Nick,1,2021_Jul_19_1956,compare_lines,2021.2.0,59.995524333880994,
diagonal1,0.0,0.0,0.0,0.0,35.0,3.0,143.0,2.0,,,,,,,,,,,,,455.0688513,None,455.57858389999996,None,456.579007,None,down,0.8576610000000073,457.0784667,None,None,None,None,1.631578947368421,1.9473684210526316,300.0,-300.0,600.0,left,right,,Nick,1,2021_Jul_19_1956,compare_lines,2021.2.0,59.995524333880994,
horizontal,0.0,0.0,0.0,0.0,36.0,0.0,144.0,0.0,,,,,,,,,,,,,457.9672839,None,458.4783564,None,459.4783573,None,left,0.4202441999999565,459.97830530000005,None,None,None,None,3.842105263157895,1.4736842105263157,300.0,-300.0,600.0,left,right,,Nick,1,2021_Jul_19_1956,compare_lines,2021.2.0,59.995524333880994,
diagonal1,0.0,0.0,0.0,0.0,36.0,1.0,145.0,2.0,,,,,,,,,,,,,460.4181625,None,460.9283849,None,461.92818229999995,None,left,0.4084392999999409,462.4284892,None,None,None,None,3.3684210526315788,1.1578947368421053,300.0,-300.0,600.0,right,left,,Nick,1,2021_Jul_19_1956,compare_lines,2021.2.0,59.995524333880994,
vertical,0.0,0.0,0.0,0.0,36.0,2.0,146.0,1.0,,,,,,,,,,,,,462.8682996,None,463.37814480000003,None,464.3780811,None,right,0.3455938000000742,464.87793559999994,None,None,None,None,1.4736842105263157,3.210526315789473,300.0,-300.0,600.0,left,right,,Nick,1,2021_Jul_19_1956,compare_lines,2021.2.0,59.995524333880994,
diagonal2,0.0,0.0,0.0,0.0,36.0,3.0,147.0,3.0,,,,,,,,,,,,,465.25222239999994,None,465.76148370000004,None,466.76136230000003,None,down,0.6290900999999849,467.2612287,None,None,None,None,1.0,1.0,300.0,-300.0,600.0,left,right,,Nick,1,2021_Jul_19_1956,compare_lines,2021.2.0,59.995524333880994,
vertical,0.0,0.0,0.0,0.0,37.0,0.0,148.0,1.0,,,,,,,,,,,,,467.9153824,None,468.42782930000004,None,469.42778119999997,None,down,0.6265766000000212,469.92773730000005,None,None,None,None,1.631578947368421,1.4736842105263157,300.0,-300.0,600.0,right,left,,Nick,1,2021_Jul_19_1956,compare_lines,2021.2.0,59.995524333880994,
diagonal2,0.0,0.0,0.0,0.0,37.0,1.0,149.0,3.0,,,,,,,,,,,,,470.5881105,None,471.09430990000004,None,472.0943362,None,down,0.7699516000000131,472.59457360000005,None,None,None,None,1.631578947368421,1.631578947368421,300.0,-300.0,600.0,left,right,,Nick,1,2021_Jul_19_1956,compare_lines,2021.2.0,59.995524333880994,
diagonal1,0.0,0.0,0.0,0.0,37.0,2.0,150.0,2.0,,,,,,,,,,,,,473.3979578,None,473.9107744,None,474.9107972,None,down,0.551283900000044,475.4107681,None,None,None,None,1.3157894736842106,1.4736842105263157,300.0,-300.0,600.0,right,left,,Nick,1,2021_Jul_19_1956,compare_lines,2021.2.0,59.995524333880994,
horizontal,0.0,0.0,0.0,0.0,37.0,3.0,151.0,0.0,,,,,,,,,,,,,475.9852314,None,476.49401700000004,None,477.4939778,None,right,0.38455470000008063,477.99394549999994,None,None,None,None,2.1052631578947367,3.5263157894736836,300.0,-300.0,600.0,right,left,,Nick,1,2021_Jul_19_1956,compare_lines,2021.2.0,59.995524333880994,
diagonal1,0.0,0.0,0.0,0.0,38.0,0.0,152.0,2.0,,,,,,,,,,,,,478.4006643,None,478.91049960000004,None,479.91054809999997,None,down,0.7808459999999968,480.41052440000004,None,None,None,None,2.8947368421052633,3.5263157894736836,300.0,-300.0,600.0,right,left,,Nick,1,2021_Jul_19_1956,compare_lines,2021.2.0,59.995524333880994,
vertical,0.0,0.0,0.0,0.0,38.0,1.0,153.0,1.0,,,,,,,,,,,,,481.2172978,None,481.72701249999994,None,482.7270289,None,down,0.7507910999999012,483.2269838,None,None,None,None,2.736842105263157,3.5263157894736836,300.0,-300.0,600.0,right,left,,Nick,1,2021_Jul_19_1956,compare_lines,2021.2.0,59.995524333880994,
diagonal2,0.0,0.0,0.0,0.0,38.0,2.0,154.0,3.0,,,,,,,,,,,,,484.0007535,None,484.51028089999994,None,485.51020550000004,None,right,0.4724555000000237,486.01015920000003,None,None,None,None,1.9473684210526316,3.684210526315789,300.0,-300.0,600.0,right,left,,Nick,1,2021_Jul_19_1956,compare_lines,2021.2.0,59.995524333880994,
horizontal,0.0,0.0,0.0,0.0,38.0,3.0,155.0,0.0,,,,,,,,,,,,,486.5168516,None,487.02680949999996,None,488.0270576,None,down,0.6476509000000306,488.5266536,None,None,None,None,3.052631578947368,3.052631578947368,300.0,-300.0,600.0,left,right,,Nick,1,2021_Jul_19_1956,compare_lines,2021.2.0,59.995524333880994,
diagonal1,0.0,0.0,0.0,0.0,39.0,0.0,156.0,2.0,,,,,,,,,,,,,489.20120499999996,None,489.70992729999995,None,490.7098018,None,left,0.40408350000006976,491.20989360000004,None,None,None,None,4.0,1.0,300.0,-300.0,600.0,left,right,,Nick,1,2021_Jul_19_1956,compare_lines,2021.2.0,59.995524333880994,
diagonal2,0.0,0.0,0.0,0.0,39.0,1.0,157.0,3.0,,,,,,,,,,,,,491.6469448,None,492.15980369999994,None,493.15971970000004,None,left,0.8667077000000063,493.65962499999995,None,None,None,None,1.0,1.0,300.0,-300.0,600.0,left,right,,Nick,1,2021_Jul_19_1956,compare_lines,2021.2.0,59.995524333880994,
horizontal,0.0,0.0,0.0,0.0,39.0,2.0,158.0,0.0,,,,,,,,,,,,,494.5483444,None,495.0596959,None,496.059405,None,left,0.5809163999999782,496.55951539999995,None,None,None,None,3.210526315789473,3.210526315789473,300.0,-300.0,600.0,right,left,,Nick,1,2021_Jul_19_1956,compare_lines,2021.2.0,59.995524333880994,
vertical,0.0,0.0,0.0,0.0,39.0,3.0,159.0,1.0,,,,,,,,,,,,,497.1660346000001,None,497.6763593,None,498.67606959999995,None,down,0.7516220999999632,499.17606299999994,None,None,None,None,3.210526315789473,3.3684210526315788,300.0,-300.0,600.0,left,right,,Nick,1,2021_Jul_19_1956,compare_lines,2021.2.0,59.995524333880994,
horizontal,0.0,0.0,0.0,0.0,40.0,0.0,160.0,0.0,,,,,,,,,,,,,499.9496384,None,500.45927950000004,None,501.4592456,None,down,0.4839567000000216,501.95920010000003,None,None,None,None,1.9473684210526316,1.9473684210526316,300.0,-300.0,600.0,right,left,,Nick,1,2021_Jul_19_1956,compare_lines,2021.2.0,59.995524333880994,
diagonal2,0.0,0.0,0.0,0.0,40.0,1.0,161.0,3.0,,,,,,,,,,,,,502.4660519,None,502.97586929999994,None,503.9765557,None,left,0.4167910000001029,504.475796,None,None,None,None,3.684210526315789,2.1052631578947367,300.0,-300.0,600.0,right,left,,Nick,1,2021_Jul_19_1956,compare_lines,2021.2.0,59.995524333880994,
diagonal1,0.0,0.0,0.0,0.0,40.0,2.0,162.0,2.0,,,,,,,,,,,,,504.9158158,None,505.4259847,None,506.42567049999997,None,down,0.5638443000000279,506.92560469999995,None,None,None,None,2.736842105263157,2.5789473684210527,300.0,-300.0,600.0,right,left,,Nick,1,2021_Jul_19_1956,compare_lines,2021.2.0,59.995524333880994,
vertical,0.0,0.0,0.0,0.0,40.0,3.0,163.0,1.0,,,,,,,,,,,,,507.5157603,None,508.0259117,None,509.0254825,None,down,0.6861855999999307,509.5254706,None,None,None,None,3.684210526315789,3.684210526315789,300.0,-300.0,600.0,left,right,,Nick,1,2021_Jul_19_1956,compare_lines,2021.2.0,59.995524333880994,
diagonal2,0.0,0.0,0.0,0.0,41.0,0.0,164.0,3.0,,,,,,,,,,,,,510.2322483,None,510.7420599,None,511.74203919999997,None,down,0.4977231999999958,512.2421621000001,None,None,None,None,1.3157894736842106,1.3157894736842106,300.0,-300.0,600.0,right,left,,Nick,1,2021_Jul_19_1956,compare_lines,2021.2.0,59.995524333880994,
diagonal1,0.0,0.0,0.0,0.0,41.0,1.0,165.0,2.0,,,,,,,,,,,,,512.7633911999999,None,513.2751625000001,None,514.2751854999999,None,left,0.5355470000000649,514.7752146,None,None,None,None,3.052631578947368,1.7894736842105263,300.0,-300.0,600.0,left,right,,Nick,1,2021_Jul_19_1956,compare_lines,2021.2.0,59.995524333880994,
vertical,0.0,0.0,0.0,0.0,41.0,2.0,166.0,1.0,,,,,,,,,,,,,515.3329748000001,None,515.8417168000001,None,516.8416815,None,left,0.8049393999999666,517.3416789,None,None,None,None,2.1052631578947367,2.1052631578947367,300.0,-300.0,600.0,left,right,,Nick,1,2021_Jul_19_1956,compare_lines,2021.2.0,59.995524333880994,
horizontal,0.0,0.0,0.0,0.0,41.0,3.0,167.0,0.0,,,,,,,,,,,,,518.1808192999998,None,518.6915916999999,None,519.6927774999999,None,right,0.3810195000000931,520.1914592,None,None,None,None,1.3157894736842106,4.0,300.0,-300.0,600.0,left,right,,Nick,1,2021_Jul_19_1956,compare_lines,2021.2.0,59.995524333880994,
vertical,0.0,0.0,0.0,0.0,42.0,0.0,168.0,1.0,,,,,,,,,,,,,520.5956177,None,521.1087778000001,None,522.1080691,None,left,0.3675207999999657,522.6080385,None,None,None,None,2.5789473684210527,2.1052631578947367,300.0,-300.0,600.0,right,left,,Nick,1,2021_Jul_19_1956,compare_lines,2021.2.0,59.995524333880994,
diagonal1,0.0,0.0,0.0,0.0,42.0,1.0,169.0,2.0,,,,,,,,,,,,,522.9965557,None,523.5080184000001,None,524.5079429,None,right,0.5900585000000547,525.007881,None,None,None,None,3.842105263157895,3.5263157894736836,300.0,-300.0,600.0,right,left,,Nick,1,2021_Jul_19_1956,compare_lines,2021.2.0,59.995524333880994,
horizontal,0.0,0.0,0.0,0.0,42.0,2.0,170.0,0.0,,,,,,,,,,,,,525.6313565999999,None,526.1410456000001,None,527.1410897999999,None,down,0.6691636999998991,527.6410681,None,None,None,None,2.263157894736842,2.421052631578948,300.0,-300.0,600.0,right,left,,Nick,1,2021_Jul_19_1956,compare_lines,2021.2.0,59.995524333880994,
diagonal2,0.0,0.0,0.0,0.0,42.0,3.0,171.0,3.0,,,,,,,,,,,,,528.3311788999998,None,528.8410306000001,None,529.8409475999999,None,right,0.6197984000000359,530.3409827,None,None,None,None,1.4736842105263157,2.736842105263157,300.0,-300.0,600.0,right,left,,Nick,1,2021_Jul_19_1956,compare_lines,2021.2.0,59.995524333880994,
vertical,0.0,0.0,0.0,0.0,43.0,0.0,172.0,1.0,,,,,,,,,,,,,530.9809849999998,None,531.4908401,None,532.4907934999999,None,left,0.9712446000000908,532.9908276000001,None,None,None,None,2.8947368421052633,2.8947368421052633,300.0,-300.0,600.0,right,left,,Nick,1,2021_Jul_19_1956,compare_lines,2021.2.0,59.995524333880994,
diagonal2,0.0,0.0,0.0,0.0,43.0,1.0,173.0,3.0,,,,,,,,,,,,,533.9941125999999,None,534.5078437,None,535.5072912999999,None,left,0.6528743000000077,536.0072372,None,None,None,None,2.263157894736842,1.4736842105263157,300.0,-300.0,600.0,left,right,,Nick,1,2021_Jul_19_1956,compare_lines,2021.2.0,59.995524333880994,
horizontal,0.0,0.0,0.0,0.0,43.0,2.0,174.0,0.0,,,,,,,,,,,,,536.6807699000002,None,537.1905285,None,538.1905088000001,None,down,0.8481360000000677,538.6904807000001,None,None,None,None,1.631578947368421,1.631578947368421,300.0,-300.0,600.0,right,left,,Nick,1,2021_Jul_19_1956,compare_lines,2021.2.0,59.995524333880994,
diagonal1,0.0,0.0,0.0,0.0,43.0,3.0,175.0,2.0,,,,,,,,,,,,,539.5639707,None,540.0736864999999,None,541.0736188000001,None,left,1.0402303999999276,541.5735932,None,None,None,None,3.210526315789473,3.210526315789473,300.0,-300.0,600.0,right,left,,Nick,1,2021_Jul_19_1956,compare_lines,2021.2.0,59.995524333880994,
vertical,0.0,0.0,0.0,0.0,44.0,0.0,176.0,1.0,,,,,,,,,,,,,542.6445616999998,None,543.156812,None,544.1567743,None,down,0.7684930000000351,544.6567943,None,None,None,None,1.9473684210526316,1.4736842105263157,300.0,-300.0,600.0,left,right,,Nick,1,2021_Jul_19_1956,compare_lines,2021.2.0,59.995524333880994,
diagonal1,0.0,0.0,0.0,0.0,44.0,1.0,177.0,2.0,,,,,,,,,,,,,545.4441141,None,545.9566906,None,546.9566083,None,left,0.5040111000000707,547.4565763999999,None,None,None,None,4.0,2.5789473684210527,300.0,-300.0,600.0,right,left,,Nick,1,2021_Jul_19_1956,compare_lines,2021.2.0,59.995524333880994,
diagonal2,0.0,0.0,0.0,0.0,44.0,2.0,178.0,3.0,,,,,,,,,,,,,547.9937445999999,None,548.5067099,None,549.5064580000001,None,left,0.4874701999999616,550.0064652000001,None,None,None,None,3.842105263157895,3.3684210526315788,300.0,-300.0,600.0,right,left,,Nick,1,2021_Jul_19_1956,compare_lines,2021.2.0,59.995524333880994,
horizontal,0.0,0.0,0.0,0.0,44.0,3.0,179.0,0.0,,,,,,,,,,,,,550.5268572000001,None,551.0396006999999,None,552.0397347,None,down,0.5645628999999417,552.5396622000001,None,None,None,None,1.4736842105263157,1.4736842105263157,300.0,-300.0,600.0,left,right,,Nick,1,2021_Jul_19_1956,compare_lines,2021.2.0,59.995524333880994,
horizontal,0.0,0.0,0.0,0.0,45.0,0.0,180.0,0.0,,,,,,,,,,,,,553.1268577999998,None,553.6394522999999,None,554.6395378,None,left,0.6897238000000243,555.1395184,None,None,None,None,2.736842105263157,2.736842105263157,300.0,-300.0,600.0,left,right,,Nick,1,2021_Jul_19_1956,compare_lines,2021.2.0,59.995524333880994,
vertical,0.0,0.0,0.0,0.0,45.0,1.0,181.0,1.0,,,,,,,,,,,,,555.8627052999999,None,556.3725801999999,None,557.3726583,None,right,0.4303615000000036,557.872656,None,None,None,None,2.1052631578947367,2.8947368421052633,300.0,-300.0,600.0,left,right,,Nick,1,2021_Jul_19_1956,compare_lines,2021.2.0,59.995524333880994,
diagonal1,0.0,0.0,0.0,0.0,45.0,2.0,182.0,2.0,,,,,,,,,,,,,558.3271772999999,None,558.8391537,None,559.8392348,None,down,0.6304592000000184,560.3397418,None,None,None,None,1.9473684210526316,1.9473684210526316,300.0,-300.0,600.0,left,right,,Nick,1,2021_Jul_19_1956,compare_lines,2021.2.0,59.995524333880994,
diagonal2,0.0,0.0,0.0,0.0,45.0,3.0,183.0,3.0,,,,,,,,,,,,,560.9932150000001,None,561.5059220999999,None,562.5057277999999,None,down,0.6514885999999933,563.0056626,None,None,None,None,1.3157894736842106,1.3157894736842106,300.0,-300.0,600.0,left,right,,Nick,1,2021_Jul_19_1956,compare_lines,2021.2.0,59.995524333880994,
horizontal,0.0,0.0,0.0,0.0,46.0,0.0,184.0,0.0,,,,,,,,,,,,,563.6791424999999,None,564.1889670999999,None,565.1889451,None,right,0.3881061999999247,565.688891,None,None,None,None,1.1578947368421053,2.5789473684210527,300.0,-300.0,600.0,left,right,,Nick,1,2021_Jul_19_1956,compare_lines,2021.2.0,59.995524333880994,
diagonal2,0.0,0.0,0.0,0.0,46.0,1.0,185.0,3.0,,,,,,,,,,,,,566.1093077,None,566.6221370999999,None,567.6221207000001,None,down,1.0140850999999884,568.1221115000001,None,None,None,None,1.0,1.0,300.0,-300.0,600.0,left,right,,Nick,1,2021_Jul_19_1956,compare_lines,2021.2.0,59.995524333880994,
diagonal1,0.0,0.0,0.0,0.0,46.0,2.0,186.0,2.0,,,,,,,,,,,,,569.1594190000002,None,569.6718401,None,570.6719224999999,None,left,0.7812920000000076,571.1719737999999,None,None,None,None,3.842105263157895,2.5789473684210527,300.0,-300.0,600.0,left,right,,Nick,1,2021_Jul_19_1956,compare_lines,2021.2.0,59.995524333880994,
vertical,0.0,0.0,0.0,0.0,46.0,3.0,187.0,1.0,,,,,,,,,,,,,571.9793391000002,None,572.4884254000001,None,573.4884095,None,left,0.8035430999999562,573.9884976000001,None,None,None,None,2.263157894736842,1.3157894736842106,300.0,-300.0,600.0,left,right,,Nick,1,2021_Jul_19_1956,compare_lines,2021.2.0,59.995524333880994,
vertical,0.0,0.0,0.0,0.0,47.0,0.0,188.0,1.0,,,,,,,,,,,,,574.8092918,None,575.3225580999999,None,576.3216087000001,None,left,0.4744110000000319,576.8215066,None,None,None,None,3.210526315789473,2.736842105263157,300.0,-300.0,600.0,right,left,,Nick,1,2021_Jul_19_1956,compare_lines,2021.2.0,59.995524333880994,
diagonal1,0.0,0.0,0.0,0.0,47.0,1.0,189.0,2.0,,,,,,,,,,,,,577.3257852999999,None,577.8380463000001,None,578.8381578000001,None,down,0.8908607999999276,579.3380659,None,None,None,None,3.210526315789473,4.0,300.0,-300.0,600.0,right,left,,Nick,1,2021_Jul_19_1956,compare_lines,2021.2.0,59.995524333880994,
horizontal,0.0,0.0,0.0,0.0,47.0,2.0,190.0,0.0,,,,,,,,,,,,,580.2625966,None,580.7712313,None,581.7713477,None,down,0.638106300000004,582.2712647000001,None,None,None,None,3.684210526315789,2.8947368421052633,300.0,-300.0,600.0,left,right,,Nick,1,2021_Jul_19_1956,compare_lines,2021.2.0,59.995524333880994,
diagonal2,0.0,0.0,0.0,0.0,47.0,3.0,191.0,3.0,,,,,,,,,,,,,582.9445007999999,None,583.4547706999999,None,584.4544796,None,down,0.7489468999999644,584.9548411000001,None,None,None,None,2.736842105263157,2.736842105263157,300.0,-300.0,600.0,left,right,,Nick,1,2021_Jul_19_1956,compare_lines,2021.2.0,59.995524333880994,
diagonal2,0.0,0.0,0.0,0.0,48.0,0.0,192.0,3.0,,,,,,,,,,,,,585.7281290999998,None,586.2376707000001,None,587.2376727999999,None,down,0.93510660000004,587.7377125999999,None,None,None,None,4.0,4.0,300.0,-300.0,600.0,right,left,,Nick,1,2021_Jul_19_1956,compare_lines,2021.2.0,59.995524333880994,
diagonal1,0.0,0.0,0.0,0.0,48.0,1.0,193.0,2.0,,,,,,,,,,,,,588.6938241,None,589.2041363999999,None,590.2041643,None,down,0.4733374999999569,590.7043432,None,None,None,None,2.263157894736842,2.263157894736842,300.0,-300.0,600.0,left,right,,Nick,1,2021_Jul_19_1956,compare_lines,2021.2.0,59.995524333880994,
vertical,0.0,0.0,0.0,0.0,48.0,2.0,194.0,1.0,,,,,,,,,,,,,591.2086327000001,None,591.7211391999999,None,592.7208591000001,None,left,0.3772824000000128,593.2206116,None,None,None,None,3.052631578947368,1.0,300.0,-300.0,600.0,right,left,,Nick,1,2021_Jul_19_1956,compare_lines,2021.2.0,59.995524333880994,
horizontal,0.0,0.0,0.0,0.0,48.0,3.0,195.0,0.0,,,,,,,,,,,,,593.6275396000002,None,594.1371076,None,595.1371405,None,right,0.5993462000000136,595.6371263000001,None,None,None,None,3.684210526315789,3.5263157894736836,300.0,-300.0,600.0,left,right,,Nick,1,2021_Jul_19_1956,compare_lines,2021.2.0,59.995524333880994,
vertical,0.0,0.0,0.0,0.0,49.0,0.0,196.0,1.0,,,,,,,,,,,,,596.2613441999998,None,596.7704065999999,None,597.7703707999999,None,right,0.4198359000000664,598.2702727000001,None,None,None,None,1.9473684210526316,3.5263157894736836,300.0,-300.0,600.0,left,right,,Nick,1,2021_Jul_19_1956,compare_lines,2021.2.0,59.995524333880994,
diagonal1,0.0,0.0,0.0,0.0,49.0,1.0,197.0,2.0,,,,,,,,,,,,,598.7077753000002,None,599.2201462999999,None,600.2202506000001,None,right,0.5740560000000414,600.7202318,None,None,None,None,2.1052631578947367,3.842105263157895,300.0,-300.0,600.0,right,left,,Nick,1,2021_Jul_19_1956,compare_lines,2021.2.0,59.995524333880994,
diagonal2,0.0,0.0,0.0,0.0,49.0,2.0,198.0,3.0,,,,,,,,,,,,,601.3271477000002,None,601.8367929000001,None,602.836732,None,right,0.4054448999999067,603.3365707999999,None,None,None,None,1.9473684210526316,3.842105263157895,300.0,-300.0,600.0,left,right,,Nick,1,2021_Jul_19_1956,compare_lines,2021.2.0,59.995524333880994,
horizontal,0.0,0.0,0.0,0.0,49.0,3.0,199.0,0.0,,,,,,,,,,,,,603.7799288000001,None,604.2866578000001,None,605.2865859000001,None,right,0.3236325999999963,605.7865500999999,None,None,None,None,1.9473684210526316,3.210526315789473,300.0,-300.0,600.0,left,right,,Nick,1,2021_Jul_19_1956,compare_lines,2021.2.0,59.995524333880994,
diagonal1,0.0,0.0,0.0,0.0,50.0,0.0,200.0,2.0,,,,,,,,,,,,,606.1437226999999,None,606.654086,None,607.6530926999999,None,left,0.43917729999998295,608.1531709000001,None,None,None,None,2.5789473684210527,1.7894736842105263,300.0,-300.0,600.0,left,right,,Nick,1,2021_Jul_19_1956,compare_lines,2021.2.0,59.995524333880994,
vertical,0.0,0.0,0.0,0.0,50.0,1.0,201.0,1.0,,,,,,,,,,,,,608.6266659,None,609.1363661,None,610.1362971000001,None,down,0.6595332999999073,610.6364421000001,None,None,None,None,2.263157894736842,2.263157894736842,300.0,-300.0,600.0,left,right,,Nick,1,2021_Jul_19_1956,compare_lines,2021.2.0,59.995524333880994,
diagonal2,0.0,0.0,0.0,0.0,50.0,2.0,202.0,3.0,,,,,,,,,,,,,611.3266262999999,None,611.8362526999999,None,612.836155,None,left,0.4627181999999266,613.3360772999999,None,None,None,None,3.684210526315789,3.052631578947368,300.0,-300.0,600.0,right,left,,Nick,1,2021_Jul_19_1956,compare_lines,2021.2.0,59.995524333880994,
horizontal,0.0,0.0,0.0,0.0,50.0,3.0,203.0,0.0,,,,,,,,,,,,,613.8272132999999,None,614.3358836,None,615.3359813,None,right,0.6768781999999192,615.835963,None,None,None,None,1.0,1.9473684210526316,300.0,-300.0,600.0,right,left,,Nick,1,2021_Jul_19_1956,compare_lines,2021.2.0,59.995524333880994,
diagonal2,0.0,0.0,0.0,0.0,51.0,0.0,204.0,3.0,,,,,,,,,,,,,616.5426069,None,617.0525666999999,None,618.0525273000001,None,right,0.6984843000000183,618.5524656,None,None,None,None,1.1578947368421053,1.1578947368421053,300.0,-300.0,600.0,right,left,,Nick,1,2021_Jul_19_1956,compare_lines,2021.2.0,59.995524333880994,
horizontal,0.0,0.0,0.0,0.0,51.0,1.0,205.0,0.0,,,,,,,,,,,,,619.2760492000001,None,619.7857366999999,None,620.7856824,None,right,0.5173000999999431,621.2856609999999,None,None,None,None,3.842105263157895,3.684210526315789,300.0,-300.0,600.0,left,right,,Nick,1,2021_Jul_19_1956,compare_lines,2021.2.0,59.995524333880994,
vertical,0.0,0.0,0.0,0.0,51.0,2.0,206.0,1.0,,,,,,,,,,,,,621.8230374,None,622.3356391,None,623.3355345,None,down,0.7961816999999201,623.8355031000001,None,None,None,None,3.5263157894736836,3.5263157894736836,300.0,-300.0,600.0,right,left,,Nick,1,2021_Jul_19_1956,compare_lines,2021.2.0,59.995524333880994,
diagonal1,0.0,0.0,0.0,0.0,51.0,3.0,207.0,2.0,,,,,,,,,,,,,624.6586553999999,None,625.1689302,None,626.1686678000001,None,right,0.4624307000000272,626.6686705,None,None,None,None,2.1052631578947367,2.736842105263157,300.0,-300.0,600.0,left,right,,Nick,1,2021_Jul_19_1956,compare_lines,2021.2.0,59.995524333880994,
diagonal1,0.0,0.0,0.0,0.0,52.0,0.0,208.0,2.0,,,,,,,,,,,,,627.160038,None,627.6685898999999,None,628.668617,None,left,0.422506799999951,629.1689108999999,None,None,None,None,2.736842105263157,1.1578947368421053,300.0,-300.0,600.0,right,left,,Nick,1,2021_Jul_19_1956,compare_lines,2021.2.0,59.995524333880994,
diagonal2,0.0,0.0,0.0,0.0,52.0,1.0,209.0,3.0,,,,,,,,,,,,,629.6249118000002,None,630.1350772999999,None,631.1350387,None,down,0.7788161999999375,631.6350293999999,None,None,None,None,1.7894736842105263,2.263157894736842,300.0,-300.0,600.0,left,right,,Nick,1,2021_Jul_19_1956,compare_lines,2021.2.0,59.995524333880994,
vertical,0.0,0.0,0.0,0.0,52.0,2.0,210.0,1.0,,,,,,,,,,,,,632.4421225000001,None,632.9516923000001,None,633.9517351,None,left,0.6110026999999718,634.4515389000001,None,None,None,None,3.3684210526315788,3.3684210526315788,300.0,-300.0,600.0,right,left,,Nick,1,2021_Jul_19_1956,compare_lines,2021.2.0,59.995524333880994,
horizontal,0.0,0.0,0.0,0.0,52.0,3.0,211.0,0.0,,,,,,,,,,,,,635.0903599000002,None,635.601498,None,636.6014167999999,None,right,0.4439433999999665,637.1013942,None,None,None,None,1.7894736842105263,3.842105263157895,300.0,-300.0,600.0,left,right,,Nick,1,2021_Jul_19_1956,compare_lines,2021.2.0,59.995524333880994,
diagonal2,0.0,0.0,0.0,0.0,53.0,0.0,212.0,3.0,,,,,,,,,,,,,637.5749025,None,638.0845694,None,639.0846058,None,down,0.5907564000000319,639.5846042999999,None,None,None,None,1.0,1.0,300.0,-300.0,600.0,right,left,,Nick,1,2021_Jul_19_1956,compare_lines,2021.2.0,59.995524333880994,
vertical,0.0,0.0,0.0,0.0,53.0,1.0,213.0,1.0,,,,,,,,,,,,,640.2080225999999,None,640.7177231000001,None,641.7178518000001,None,right,0.5104795999999396,642.2179120999999,None,None,None,None,2.736842105263157,2.736842105263157,300.0,-300.0,600.0,left,right,,Nick,1,2021_Jul_19_1956,compare_lines,2021.2.0,59.995524333880994,
horizontal,0.0,0.0,0.0,0.0,53.0,2.0,214.0,0.0,,,,,,,,,,,,,642.7581958999998,None,643.2675973999999,None,644.2676400999999,None,right,0.7000110999999833,644.7675363999999,None,None,None,None,3.3684210526315788,2.8947368421052633,300.0,-300.0,600.0,left,right,,Nick,1,2021_Jul_19_1956,compare_lines,2021.2.0,59.995524333880994,
diagonal1,0.0,0.0,0.0,0.0,53.0,3.0,215.0,2.0,,,,,,,,,,,,,645.4913612,None,646.0008820999999,None,647.0009809999999,None,down,0.6616520999999693,647.5008108,None,None,None,None,3.684210526315789,2.263157894736842,300.0,-300.0,600.0,left,right,,Nick,1,2021_Jul_19_1956,compare_lines,2021.2.0,59.995524333880994,
diagonal2,0.0,0.0,0.0,0.0,54.0,0.0,216.0,3.0,,,,,,,,,,,,,648.1882674000002,None,648.7011276000001,None,649.7011399,None,right,0.5123677000000271,650.2006566,None,None,None,None,1.3157894736842106,3.3684210526315788,300.0,-300.0,600.0,right,left,,Nick,1,2021_Jul_19_1956,compare_lines,2021.2.0,59.995524333880994,
diagonal1,0.0,0.0,0.0,0.0,54.0,1.0,217.0,2.0,,,,,,,,,,,,,650.7411758999998,None,651.2506178000001,None,652.2505126000001,None,down,0.9164851000000452,652.7520560999999,None,None,None,None,3.842105263157895,3.210526315789473,300.0,-300.0,600.0,left,right,,Nick,1,2021_Jul_19_1956,compare_lines,2021.2.0,59.995524333880994,
vertical,0.0,0.0,0.0,0.0,54.0,2.0,218.0,1.0,,,,,,,,,,,,,653.6958161,None,654.2007332000001,None,655.2020662,None,down,0.5797491999999238,655.7182112,None,None,None,None,4.0,3.052631578947368,300.0,-300.0,600.0,right,left,,Nick,1,2021_Jul_19_1956,compare_lines,2021.2.0,59.995524333880994,
horizontal,0.0,0.0,0.0,0.0,54.0,3.0,219.0,0.0,,,,,,,,,,,,,656.3267386,None,656.8344500999999,None,657.8340717000001,None,down,0.6345896999999923,658.3337148,None,None,None,None,2.421052631578948,2.421052631578948,300.0,-300.0,600.0,right,left,,Nick,1,2021_Jul_19_1956,compare_lines,2021.2.0,59.995524333880994,
horizontal,0.0,0.0,0.0,0.0,55.0,0.0,220.0,0.0,,,,,,,,,,,,,658.9902725,None,659.5021964,None,660.5003288999999,None,right,0.7364589000000024,661.0002563999999,None,None,None,None,2.736842105263157,3.3684210526315788,300.0,-300.0,600.0,right,left,,Nick,1,2021_Jul_19_1956,compare_lines,2021.2.0,59.995524333880994,
vertical,0.0,0.0,0.0,0.0,55.0,1.0,221.0,1.0,,,,,,,,,,,,,661.7600413,None,662.2668374,None,663.2667673999999,None,right,0.7402878999999984,663.7667306999999,None,None,None,None,2.5789473684210527,2.8947368421052633,300.0,-300.0,600.0,right,left,,Nick,1,2021_Jul_19_1956,compare_lines,2021.2.0,59.995524333880994,
diagonal2,0.0,0.0,0.0,0.0,55.0,2.0,222.0,3.0,,,,,,,,,,,,,664.5408471000002,None,665.0500407,None,666.0499633,None,left,0.5675972000000229,666.5498921000001,None,None,None,None,3.052631578947368,2.1052631578947367,300.0,-300.0,600.0,right,left,,Nick,1,2021_Jul_19_1956,compare_lines,2021.2.0,59.995524333880994,
diagonal1,0.0,0.0,0.0,0.0,55.0,3.0,223.0,2.0,,,,,,,,,,,,,667.1384982000001,None,667.6503935000001,None,668.6497876000001,None,right,0.6967300000000023,669.1496354000001,None,None,None,None,3.3684210526315788,3.684210526315789,300.0,-300.0,600.0,right,left,,Nick,1,2021_Jul_19_1956,compare_lines,2021.2.0,59.995524333880994,
vertical,0.0,0.0,0.0,0.0,56.0,0.0,224.0,1.0,,,,,,,,,,,,,669.8739192999999,None,670.3829453999999,None,671.3833010000001,None,right,0.43941589999997177,671.8832365999999,None,None,None,None,2.5789473684210527,3.052631578947368,300.0,-300.0,600.0,left,right,,Nick,1,2021_Jul_19_1956,compare_lines,2021.2.0,59.995524333880994,
diagonal2,0.0,0.0,0.0,0.0,56.0,1.0,225.0,3.0,,,,,,,,,,,,,672.3537028999998,None,672.8662823,None,673.8661254000001,None,down,0.6518995999999788,674.3664126000001,None,None,None,None,1.9473684210526316,2.1052631578947367,300.0,-300.0,600.0,left,right,,Nick,1,2021_Jul_19_1956,compare_lines,2021.2.0,59.995524333880994,
diagonal1,0.0,0.0,0.0,0.0,56.0,2.0,226.0,2.0,,,,,,,,,,,,,675.0397439999998,None,675.5494219,None,676.5494156,None,right,0.3879028999999719,677.0493488,None,None,None,None,1.7894736842105263,4.0,300.0,-300.0,600.0,left,right,,Nick,1,2021_Jul_19_1956,compare_lines,2021.2.0,59.995524333880994,
horizontal,0.0,0.0,0.0,0.0,56.0,3.0,227.0,0.0,,,,,,,,,,,,,677.4761693,None,677.9827008,None,678.9830073,None,left,0.5030531000001021,679.4825742999999,None,None,None,None,4.0,2.1052631578947367,300.0,-300.0,600.0,left,right,,Nick,1,2021_Jul_19_1956,compare_lines,2021.2.0,59.995524333880994,
diagonal1,0.0,0.0,0.0,0.0,57.0,0.0,228.0,2.0,,,,,,,,,,,,,680.0062174,None,680.5158546,None,681.5156858,None,right,0.8025875999999244,682.0159587,None,None,None,None,4.0,3.842105263157895,300.0,-300.0,600.0,left,right,,Nick,1,2021_Jul_19_1956,compare_lines,2021.2.0,59.995524333880994,
vertical,0.0,0.0,0.0,0.0,57.0,1.0,229.0,1.0,,,,,,,,,,,,,682.8394656,None,683.3491041,None,684.3490672999999,None,right,0.3809704000000238,684.8487001000001,None,None,None,None,1.631578947368421,2.736842105263157,300.0,-300.0,600.0,left,right,,Nick,1,2021_Jul_19_1956,compare_lines,2021.2.0,59.995524333880994,
diagonal2,0.0,0.0,0.0,0.0,57.0,2.0,230.0,3.0,,,,,,,,,,,,,685.2575942000002,None,685.7661166,None,686.7655055,None,right,0.5189129999999977,687.2655421,None,None,None,None,2.5789473684210527,3.684210526315789,300.0,-300.0,600.0,right,left,,Nick,1,2021_Jul_19_1956,compare_lines,2021.2.0,59.995524333880994,
horizontal,0.0,0.0,0.0,0.0,57.0,3.0,231.0,0.0,,,,,,,,,,,,,687.8048997000002,None,688.315445,None,689.3153562,None,down,0.6162653999999748,689.8158779999999,None,None,None,None,2.1052631578947367,2.263157894736842,300.0,-300.0,600.0,right,left,,Nick,1,2021_Jul_19_1956,compare_lines,2021.2.0,59.995524333880994,
diagonal1,0.0,0.0,0.0,0.0,58.0,0.0,232.0,2.0,,,,,,,,,,,,,690.4569265,None,690.9652344000001,None,691.9658205999999,None,down,0.9418539000000692,692.4650761999999,None,None,None,None,1.1578947368421053,1.1578947368421053,300.0,-300.0,600.0,right,left,,Nick,1,2021_Jul_19_1956,compare_lines,2021.2.0,59.995524333880994,
horizontal,0.0,0.0,0.0,0.0,58.0,1.0,233.0,0.0,,,,,,,,,,,,,693.4388931999998,None,693.9485456,None,694.9484448000001,None,down,0.7018382999999631,695.4483903999999,None,None,None,None,2.8947368421052633,3.842105263157895,300.0,-300.0,600.0,right,left,,Nick,1,2021_Jul_19_1956,compare_lines,2021.2.0,59.995524333880994,
diagonal2,0.0,0.0,0.0,0.0,58.0,2.0,234.0,3.0,,,,,,,,,,,,,696.1726007999999,None,696.6817194,None,697.6815260999999,None,left,0.6241138000000319,698.181675,None,None,None,None,3.210526315789473,3.684210526315789,300.0,-300.0,600.0,right,left,,Nick,1,2021_Jul_19_1956,compare_lines,2021.2.0,59.995524333880994,
vertical,0.0,0.0,0.0,0.0,58.0,3.0,235.0,1.0,,,,,,,,,,,,,698.8390704999998,None,699.3504857,None,700.3479520000001,None,down,0.5536991000000171,700.8478765,None,None,None,None,2.263157894736842,2.263157894736842,300.0,-300.0,600.0,left,right,,Nick,1,2021_Jul_19_1956,compare_lines,2021.2.0,59.995524333880994,
diagonal2,0.0,0.0,0.0,0.0,59.0,0.0,236.0,3.0,,,,,,,,,,,,,701.4233039000002,None,701.9312161,None,702.9312167999999,None,down,0.2296221000000287,703.4310218999999,None,None,None,None,2.5789473684210527,1.4736842105263157,300.0,-300.0,600.0,right,left,,Nick,1,2021_Jul_19_1956,compare_lines,2021.2.0,59.995524333880994,
horizontal,0.0,0.0,0.0,0.0,59.0,1.0,237.0,0.0,,,,,,,,,,,,,703.6907550000002,None,704.1979905000001,None,705.1979171,None,down,0.4290077000000565,705.6978953,None,None,None,None,1.4736842105263157,1.4736842105263157,300.0,-300.0,600.0,left,right,,Nick,1,2021_Jul_19_1956,compare_lines,2021.2.0,59.995524333880994,
diagonal1,0.0,0.0,0.0,0.0,59.0,2.0,238.0,2.0,,,,,,,,,,,,,706.1557416999998,None,706.6663361999999,None,707.6642465,None,down,0.6288117000000284,708.1644128999999,None,None,None,None,2.421052631578948,1.9473684210526316,300.0,-300.0,600.0,right,left,,Nick,1,2021_Jul_19_1956,compare_lines,2021.2.0,59.995524333880994,
vertical,0.0,0.0,0.0,0.0,59.0,3.0,239.0,1.0,,,,,,,,,,,,,708.8227741000002,None,709.3306560999999,None,710.3308087,None,left,0.5679202000000032,710.830839,None,None,None,None,3.684210526315789,3.684210526315789,300.0,-300.0,600.0,right,left,,Nick,1,2021_Jul_19_1956,compare_lines,2021.2.0,59.995524333880994,
vertical,0.0,0.0,0.0,0.0,60.0,0.0,240.0,1.0,,,,,,,,,,,,,711.4221855000002,None,711.9305890999999,None,712.9305239,None,down,0.5428911999999855,713.4307455999999,None,None,None,None,1.4736842105263157,2.1052631578947367,300.0,-300.0,600.0,left,right,,Nick,1,2021_Jul_19_1956,compare_lines,2021.2.0,59.995524333880994,
horizontal,0.0,0.0,0.0,0.0,60.0,1.0,241.0,0.0,,,,,,,,,,,,,714.0033268999999,None,714.5139861,None,715.5138056999999,None,down,0.60956699999997,716.0136732999999,None,None,None,None,3.842105263157895,3.842105263157895,300.0,-300.0,600.0,right,left,,Nick,1,2021_Jul_19_1956,compare_lines,2021.2.0,59.995524333880994,
diagonal2,0.0,0.0,0.0,0.0,60.0,2.0,242.0,3.0,,,,,,,,,,,,,716.6545742000002,None,717.1638476,None,718.1635663,None,down,0.9175597999999354,718.6636375999999,None,None,None,None,1.631578947368421,1.631578947368421,300.0,-300.0,600.0,right,left,,Nick,1,2021_Jul_19_1956,compare_lines,2021.2.0,59.995524333880994,
diagonal1,0.0,0.0,0.0,0.0,60.0,3.0,243.0,2.0,,,,,,,,,,,,,719.6047593999998,None,720.1134357999999,None,721.1134529999999,None,right,0.37773759999993217,721.6134668,None,None,None,None,2.8947368421052633,2.8947368421052633,300.0,-300.0,600.0,left,right,,Nick,1,2021_Jul_19_1956,compare_lines,2021.2.0,59.995524333880994,
diagonal2,0.0,0.0,0.0,0.0,61.0,0.0,244.0,3.0,,,,,,,,,,,,,722.0241739999999,None,722.5306195999999,None,723.5302096999999,None,right,0.5478461999999809,724.0298247999999,None,None,None,None,3.5263157894736836,3.210526315789473,300.0,-300.0,600.0,left,right,,Nick,1,2021_Jul_19_1956,compare_lines,2021.2.0,59.995524333880994,
diagonal1,0.0,0.0,0.0,0.0,61.0,1.0,245.0,2.0,,,,,,,,,,,,,724.6045933999999,None,725.1138894999999,None,726.1131299000001,None,left,0.3703395,726.6132416999999,None,None,None,None,3.842105263157895,1.3157894736842106,300.0,-300.0,600.0,right,left,,Nick,1,2021_Jul_19_1956,compare_lines,2021.2.0,59.995524333880994,
vertical,0.0,0.0,0.0,0.0,61.0,2.0,246.0,1.0,,,,,,,,,,,,,727.0051967999999,None,727.5136008,None,728.5127762,None,right,0.3839626999999837,729.0129548,None,None,None,None,1.1578947368421053,3.210526315789473,300.0,-300.0,600.0,left,right,,Nick,1,2021_Jul_19_1956,compare_lines,2021.2.0,59.995524333880994,
horizontal,0.0,0.0,0.0,0.0,61.0,3.0,247.0,0.0,,,,,,,,,,,,,729.4245186,None,729.9295749999999,None,730.9297841,None,down,0.8708603999999696,731.4293683000001,None,None,None,None,3.3684210526315788,3.3684210526315788,300.0,-300.0,600.0,right,left,,Nick,1,2021_Jul_19_1956,compare_lines,2021.2.0,59.995524333880994,
diagonal2,0.0,0.0,0.0,0.0,62.0,0.0,248.0,3.0,,,,,,,,,,,,,732.3211698,None,732.8295693,None,733.8293693,None,right,0.5297138000000814,734.3291317000001,None,None,None,None,3.052631578947368,3.052631578947368,300.0,-300.0,600.0,left,right,,Nick,1,2021_Jul_19_1956,compare_lines,2021.2.0,59.995524333880994,
diagonal1,0.0,0.0,0.0,0.0,62.0,1.0,249.0,2.0,,,,,,,,,,,,,734.8919785999999,None,735.3965677000001,None,736.3958321,None,down,0.474600799999962,736.8960301,None,None,None,None,1.3157894736842106,1.0,300.0,-300.0,600.0,left,right,,Nick,1,2021_Jul_19_1956,compare_lines,2021.2.0,59.995524333880994,
vertical,0.0,0.0,0.0,0.0,62.0,2.0,250.0,1.0,,,,,,,,,,,,,737.4052615,None,737.9157648,None,738.9122422,None,down,0.3952434999999923,739.4127169000001,None,None,None,None,2.5789473684210527,2.5789473684210527,300.0,-300.0,600.0,right,left,,Nick,1,2021_Jul_19_1956,compare_lines,2021.2.0,59.995524333880994,
horizontal,0.0,0.0,0.0,0.0,62.0,3.0,251.0,0.0,,,,,,,,,,,,,739.8425984999999,None,740.3456275000001,None,741.3457458999999,None,right,0.528769900000043,741.845587,None,None,None,None,2.421052631578948,2.736842105263157,300.0,-300.0,600.0,left,right,,Nick,1,2021_Jul_19_1956,compare_lines,2021.2.0,59.995524333880994,
diagonal2,0.0,0.0,0.0,0.0,63.0,0.0,252.0,3.0,,,,,,,,,,,,,742.4028255999998,None,742.9126592,None,743.9125002000001,None,down,0.4987141999999949,744.4133437,None,None,None,None,1.7894736842105263,2.1052631578947367,300.0,-300.0,600.0,left,right,,Nick,1,2021_Jul_19_1956,compare_lines,2021.2.0,59.995524333880994,
diagonal1,0.0,0.0,0.0,0.0,63.0,1.0,253.0,2.0,,,,,,,,,,,,,744.9456135999999,None,745.4485706999999,None,746.4625266,None,right,0.4468694999999343,746.9633781,None,None,None,None,1.631578947368421,4.0,300.0,-300.0,600.0,right,left,,Nick,1,2021_Jul_19_1956,compare_lines,2021.2.0,59.995524333880994,
vertical,0.0,0.0,0.0,0.0,63.0,2.0,254.0,1.0,,,,,,,,,,,,,747.4380880000001,None,747.9454358,None,748.9452306000001,None,down,0.4549966999999242,749.4453732,None,None,None,None,1.1578947368421053,1.1578947368421053,300.0,-300.0,600.0,left,right,,Nick,1,2021_Jul_19_1956,compare_lines,2021.2.0,59.995524333880994,
horizontal,0.0,0.0,0.0,0.0,63.0,3.0,255.0,0.0,,,,,,,,,,,,,749.9342750999998,None,750.4451466999999,None,751.444753,None,down,0.44991010000001097,751.9452527999999,None,None,None,None,1.1578947368421053,1.7894736842105263,300.0,-300.0,600.0,left,right,,Nick,1,2021_Jul_19_1956,compare_lines,2021.2.0,59.995524333880994,
diagonal1,0.0,0.0,0.0,0.0,64.0,0.0,256.0,2.0,,,,,,,,,,,,,752.4185138999999,None,752.9284669000001,None,753.928019,None,down,0.6510762999999997,754.4283426,None,None,None,None,2.5789473684210527,1.631578947368421,300.0,-300.0,600.0,left,right,,Nick,1,2021_Jul_19_1956,compare_lines,2021.2.0,59.995524333880994,
diagonal2,0.0,0.0,0.0,0.0,64.0,1.0,257.0,3.0,,,,,,,,,,,,,755.1050357999999,None,755.6124076000001,None,756.6128002,None,right,0.5793025000000398,757.1280947,None,None,None,None,3.5263157894736836,4.0,300.0,-300.0,600.0,left,right,,Nick,1,2021_Jul_19_1956,compare_lines,2021.2.0,59.995524333880994,
vertical,0.0,0.0,0.0,0.0,64.0,2.0,258.0,1.0,,,,,,,,,,,,,757.7349939000002,None,758.2446465,None,759.2445926,None,down,0.6220534000000271,759.7446792000001,None,None,None,None,2.421052631578948,2.1052631578947367,300.0,-300.0,600.0,right,left,,Nick,1,2021_Jul_19_1956,compare_lines,2021.2.0,59.995524333880994,
horizontal,0.0,0.0,0.0,0.0,64.0,3.0,259.0,0.0,,,,,,,,,,,,,760.4009971999999,None,760.9110464,None,761.9112722999998,None,left,0.7141515000000709,762.4110466,None,None,None,None,3.842105263157895,3.842105263157895,300.0,-300.0,600.0,left,right,,Nick,1,2021_Jul_19_1956,compare_lines,2021.2.0,59.995524333880994,
horizontal,0.0,0.0,0.0,0.0,65.0,0.0,260.0,0.0,,,,,,,,,,,,,763.1561127,None,763.6611281999999,None,764.6620261,None,left,0.3979640999998537,765.1772704,None,None,None,None,3.210526315789473,2.1052631578947367,300.0,-300.0,600.0,right,left,,Nick,1,2021_Jul_19_1956,compare_lines,2021.2.0,59.995524333880994,
vertical,0.0,0.0,0.0,0.0,65.0,1.0,261.0,1.0,,,,,,,,,,,,,765.6020374999997,None,766.1110667,None,767.1108162999999,None,left,0.6202521999998679,767.6106560999999,None,None,None,None,3.5263157894736836,2.421052631578948,300.0,-300.0,600.0,left,right,,Nick,1,2021_Jul_19_1956,compare_lines,2021.2.0,59.995524333880994,
diagonal1,0.0,0.0,0.0,0.0,65.0,2.0,262.0,2.0,,,,,,,,,,,,,768.2514259,None,768.7608175999999,None,769.7611669,None,right,0.4453762999999071,770.2603993,None,None,None,None,1.4736842105263157,4.0,300.0,-300.0,600.0,right,left,,Nick,1,2021_Jul_19_1956,compare_lines,2021.2.0,59.995524333880994,
diagonal2,0.0,0.0,0.0,0.0,65.0,3.0,263.0,3.0,,,,,,,,,,,,,770.7355654,None,771.2440233999998,None,772.243962,None,down,0.6017683000000034,772.7439018,None,None,None,None,3.052631578947368,3.052631578947368,300.0,-300.0,600.0,right,left,,Nick,1,2021_Jul_19_1956,compare_lines,2021.2.0,59.995524333880994,
vertical,0.0,0.0,0.0,0.0,66.0,0.0,264.0,1.0,,,,,,,,,,,,,773.3678708999997,None,773.8771729999999,None,774.8769953999999,None,down,0.5744715000000724,775.377551,None,None,None,None,3.5263157894736836,3.5263157894736836,300.0,-300.0,600.0,right,left,,Nick,1,2021_Jul_19_1956,compare_lines,2021.2.0,59.995524333880994,
horizontal,0.0,0.0,0.0,0.0,66.0,1.0,265.0,0.0,,,,,,,,,,,,,775.9841589999999,None,776.4936375,None,777.4933991999999,None,down,0.4797761999998329,777.9938597,None,None,None,None,2.263157894736842,2.263157894736842,300.0,-300.0,600.0,left,right,,Nick,1,2021_Jul_19_1956,compare_lines,2021.2.0,59.995524333880994,
diagonal1,0.0,0.0,0.0,0.0,66.0,2.0,266.0,2.0,,,,,,,,,,,,,778.5010316999999,None,779.0098849999999,None,780.0102082999999,None,left,0.39990209999996296,780.5102376999998,None,None,None,None,3.684210526315789,1.0,300.0,-300.0,600.0,left,right,,Nick,1,2021_Jul_19_1956,compare_lines,2021.2.0,59.995524333880994,
diagonal2,0.0,0.0,0.0,0.0,66.0,3.0,267.0,3.0,,,,,,,,,,,,,780.9339533,None,781.4432761999999,None,782.4430645999998,None,down,0.5825910000000931,782.9431178999998,None,None,None,None,2.263157894736842,2.263157894736842,300.0,-300.0,600.0,right,left,,Nick,1,2021_Jul_19_1956,compare_lines,2021.2.0,59.995524333880994,
horizontal,0.0,0.0,0.0,0.0,67.0,0.0,268.0,0.0,,,,,,,,,,,,,783.5513495,None,784.0598551999999,None,785.0596733,None,right,0.3828968000000259,785.559753,None,None,None,None,1.3157894736842106,2.8947368421052633,300.0,-300.0,600.0,left,right,,Nick,1,2021_Jul_19_1956,compare_lines,2021.2.0,59.995524333880994,
diagonal2,0.0,0.0,0.0,0.0,67.0,1.0,269.0,3.0,,,,,,,,,,,,,785.9688305,None,786.4762671999999,None,787.4760535999999,None,right,0.3712315000000217,787.9762837999999,None,None,None,None,2.421052631578948,2.421052631578948,300.0,-300.0,600.0,left,right,,Nick,1,2021_Jul_19_1956,compare_lines,2021.2.0,59.995524333880994,
diagonal1,0.0,0.0,0.0,0.0,67.0,2.0,270.0,2.0,,,,,,,,,,,,,788.3674787,None,788.8763375999999,None,789.8762454999999,None,down,0.5253037999998469,790.3759241,None,None,None,None,3.052631578947368,3.210526315789473,300.0,-300.0,600.0,right,left,,Nick,1,2021_Jul_19_1956,compare_lines,2021.2.0,59.995524333880994,
vertical,0.0,0.0,0.0,0.0,67.0,3.0,271.0,1.0,,,,,,,,,,,,,790.9338687000001,None,791.4425403999999,None,792.4426231999998,None,down,0.4770487000000685,792.9426698,None,None,None,None,1.1578947368421053,2.263157894736842,300.0,-300.0,600.0,right,left,,Nick,1,2021_Jul_19_1956,compare_lines,2021.2.0,59.995524333880994,
horizontal,0.0,0.0,0.0,0.0,68.0,0.0,272.0,0.0,,,,,,,,,,,,,793.4492911,None,793.9599805999999,None,794.9590054999999,None,down,0.5528939999999238,795.4589681,None,None,None,None,4.0,2.736842105263157,300.0,-300.0,600.0,left,right,,Nick,1,2021_Jul_19_1956,compare_lines,2021.2.0,59.995524333880994,
diagonal1,0.0,0.0,0.0,0.0,68.0,1.0,273.0,2.0,,,,,,,,,,,,,796.0346003,None,796.5423592,None,797.5423163999999,None,down,0.4980679000000237,798.0423642999999,None,None,None,None,2.421052631578948,2.421052631578948,300.0,-300.0,600.0,right,left,,Nick,1,2021_Jul_19_1956,compare_lines,2021.2.0,59.995524333880994,
vertical,0.0,0.0,0.0,0.0,68.0,2.0,274.0,1.0,,,,,,,,,,,,,798.5655009999999,None,799.0760376999999,None,800.0753662,None,down,0.3934355000001233,800.5756546,None,None,None,None,3.684210526315789,3.684210526315789,300.0,-300.0,600.0,right,left,,Nick,1,2021_Jul_19_1956,compare_lines,2021.2.0,59.995524333880994,
diagonal2,0.0,0.0,0.0,0.0,68.0,3.0,275.0,3.0,,,,,,,,,,,,,801.0008865999997,None,801.508456,None,802.5087059,None,right,0.31411640000010266,803.0085162999999,None,None,None,None,1.3157894736842106,3.684210526315789,300.0,-300.0,600.0,left,right,,Nick,1,2021_Jul_19_1956,compare_lines,2021.2.0,59.995524333880994,
diagonal2,0.0,0.0,0.0,0.0,69.0,0.0,276.0,3.0,,,,,,,,,,,,,803.3486229999999,None,803.8584188,None,804.8583291999998,None,left,0.5106743999999708,805.3583404999999,None,None,None,None,3.842105263157895,1.1578947368421053,300.0,-300.0,600.0,left,right,,Nick,1,2021_Jul_19_1956,compare_lines,2021.2.0,59.995524333880994,
diagonal1,0.0,0.0,0.0,0.0,69.0,1.0,277.0,2.0,,,,,,,,,,,,,805.8996006,None,806.4081541,None,807.4082125,None,right,0.4632920999999897,807.9083877,None,None,None,None,1.3157894736842106,2.421052631578948,300.0,-300.0,600.0,left,right,,Nick,1,2021_Jul_19_1956,compare_lines,2021.2.0,59.995524333880994,
horizontal,0.0,0.0,0.0,0.0,69.0,2.0,278.0,0.0,,,,,,,,,,,,,808.3983567,None,808.9081117999999,None,809.9081246999999,None,left,0.5335680000000593,810.4080200999999,None,None,None,None,3.842105263157895,1.0,300.0,-300.0,600.0,left,right,,Nick,1,2021_Jul_19_1956,compare_lines,2021.2.0,59.995524333880994,
vertical,0.0,0.0,0.0,0.0,69.0,3.0,279.0,1.0,,,,,,,,,,,,,810.9653337,None,811.4747345999999,None,812.4745654999999,None,left,0.4178609000000506,812.9745429,None,None,None,None,2.5789473684210527,2.5789473684210527,300.0,-300.0,600.0,right,left,,Nick,1,2021_Jul_19_1956,compare_lines,2021.2.0,59.995524333880994,
diagonal1,0.0,0.0,0.0,0.0,70.0,0.0,280.0,2.0,,,,,,,,,,,,,813.414814,None,813.924362,None,814.9244575999999,None,down,0.6703299000000698,815.4244060999999,None,None,None,None,3.210526315789473,3.210526315789473,300.0,-300.0,600.0,left,right,,Nick,1,2021_Jul_19_1956,compare_lines,2021.2.0,59.995524333880994,
diagonal2,0.0,0.0,0.0,0.0,70.0,1.0,281.0,3.0,,,,,,,,,,,,,816.1147693999999,None,816.6242075999999,None,817.6243669999999,None,down,0.4671400000001995,818.1243327,None,None,None,None,2.5789473684210527,2.5789473684210527,300.0,-300.0,600.0,left,right,,Nick,1,2021_Jul_19_1956,compare_lines,2021.2.0,59.995524333880994,
horizontal,0.0,0.0,0.0,0.0,70.0,2.0,282.0,0.0,,,,,,,,,,,,,818.6156122999997,None,819.1242052,None,820.1241900999999,None,down,0.4696097999999438,820.6241150999999,None,None,None,None,1.3157894736842106,1.631578947368421,300.0,-300.0,600.0,right,left,,Nick,1,2021_Jul_19_1956,compare_lines,2021.2.0,59.995524333880994,
vertical,0.0,0.0,0.0,0.0,70.0,3.0,283.0,1.0,,,,,,,,,,,,,821.1127466999999,None,821.6243998999998,None,822.6239785,None,down,0.5808466000000863,823.1238083999999,None,None,None,None,1.1578947368421053,2.421052631578948,300.0,-300.0,600.0,left,right,,Nick,1,2021_Jul_19_1956,compare_lines,2021.2.0,59.995524333880994,
vertical,0.0,0.0,0.0,0.0,71.0,0.0,284.0,1.0,,,,,,,,,,,,,823.7307833999997,None,824.2405448,None,825.2405425,None,down,0.5043842000000041,825.7404867999999,None,None,None,None,1.9473684210526316,1.9473684210526316,300.0,-300.0,600.0,right,left,,Nick,1,2021_Jul_19_1956,compare_lines,2021.2.0,59.995524333880994,
diagonal2,0.0,0.0,0.0,0.0,71.0,1.0,285.0,3.0,,,,,,,,,,,,,826.2801436999997,None,826.7904315999999,None,827.7904613999999,None,right,0.5365421999999853,828.2903615999999,None,None,None,None,1.0,2.1052631578947367,300.0,-300.0,600.0,left,right,,Nick,1,2021_Jul_19_1956,compare_lines,2021.2.0,59.995524333880994,
diagonal1,0.0,0.0,0.0,0.0,71.0,2.0,286.0,2.0,,,,,,,,,,,,,828.8472565000001,None,829.3569410999999,None,830.3568957,None,left,0.628244900000027,830.8572319999998,None,None,None,None,2.736842105263157,1.7894736842105263,300.0,-300.0,600.0,right,left,,Nick,1,2021_Jul_19_1956,compare_lines,2021.2.0,59.995524333880994,
horizontal,0.0,0.0,0.0,0.0,71.0,3.0,287.0,0.0,,,,,,,,,,,,,831.5137187000001,None,832.0234774,None,833.0234885999998,None,down,0.5562657000000399,833.5233865,None,None,None,None,2.5789473684210527,2.5789473684210527,300.0,-300.0,600.0,right,left,,Nick,1,2021_Jul_19_1956,compare_lines,2021.2.0,59.995524333880994,
diagonal2,0.0,0.0,0.0,0.0,72.0,0.0,288.0,3.0,,,,,,,,,,,,,834.1137004,None,834.6231920999999,None,835.6238744,None,down,0.6181951000000936,836.1235279,None,None,None,None,3.684210526315789,3.684210526315789,300.0,-300.0,600.0,left,right,,Nick,1,2021_Jul_19_1956,compare_lines,2021.2.0,59.995524333880994,
diagonal1,0.0,0.0,0.0,0.0,72.0,1.0,289.0,2.0,,,,,,,,,,,,,836.7623357000001,None,837.2736161999999,None,838.273291,None,down,0.5810984999998254,838.7730388999998,None,None,None,None,3.3684210526315788,3.3684210526315788,300.0,-300.0,600.0,left,right,,Nick,1,2021_Jul_19_1956,compare_lines,2021.2.0,59.995524333880994,
vertical,0.0,0.0,0.0,0.0,72.0,2.0,290.0,1.0,,,,,,,,,,,,,839.3799345999997,None,839.8896525,None,840.8896,None,left,0.4816187000001264,841.3895885,None,None,None,None,2.5789473684210527,1.7894736842105263,300.0,-300.0,600.0,right,left,,Nick,1,2021_Jul_19_1956,compare_lines,2021.2.0,59.995524333880994,
horizontal,0.0,0.0,0.0,0.0,72.0,3.0,291.0,0.0,,,,,,,,,,,,,841.8966908999997,None,842.4061391999999,None,843.4061446999999,None,down,0.4606370999999854,843.9060640999999,None,None,None,None,1.0,1.0,300.0,-300.0,600.0,right,left,,Nick,1,2021_Jul_19_1956,compare_lines,2021.2.0,59.995524333880994,
vertical,0.0,0.0,0.0,0.0,73.0,0.0,292.0,1.0,,,,,,,,,,,,,844.3962652,None,844.9060145999999,None,845.9060493,None,down,0.793829100000039,846.4060519,None,None,None,None,2.8947368421052633,3.5263157894736836,300.0,-300.0,600.0,right,left,,Nick,1,2021_Jul_19_1956,compare_lines,2021.2.0,59.995524333880994,
diagonal2,0.0,0.0,0.0,0.0,73.0,1.0,293.0,3.0,,,,,,,,,,,,,847.2295342999997,None,847.7391619,None,848.7392014,None,down,0.4636426999998093,849.2391507,None,None,None,None,2.8947368421052633,1.9473684210526316,300.0,-300.0,600.0,left,right,,Nick,1,2021_Jul_19_1956,compare_lines,2021.2.0,59.995524333880994,
horizontal,0.0,0.0,0.0,0.0,73.0,2.0,294.0,0.0,,,,,,,,,,,,,849.7293705,None,850.2389108,None,851.2389773999998,None,right,0.5276446000000306,851.739006,None,None,None,None,2.8947368421052633,3.842105263157895,300.0,-300.0,600.0,left,right,,Nick,1,2021_Jul_19_1956,compare_lines,2021.2.0,59.995524333880994,
diagonal1,0.0,0.0,0.0,0.0,73.0,3.0,295.0,2.0,,,,,,,,,,,,,852.296272,None,852.8056976,None,853.8055128999999,None,down,0.5042814999999337,854.3054734999998,None,None,None,None,1.4736842105263157,1.4736842105263157,300.0,-300.0,600.0,right,left,,Nick,1,2021_Jul_19_1956,compare_lines,2021.2.0,59.995524333880994,
horizontal,0.0,0.0,0.0,0.0,74.0,0.0,296.0,0.0,,,,,,,,,,,,,854.8458307999998,None,855.3554359,None,856.3556658999998,None,right,0.5307902999998078,856.8553979999999,None,None,None,None,4.0,4.0,300.0,-300.0,600.0,left,right,,Nick,1,2021_Jul_19_1956,compare_lines,2021.2.0,59.995524333880994,
diagonal1,0.0,0.0,0.0,0.0,74.0,1.0,297.0,2.0,,,,,,,,,,,,,857.4095622000001,None,857.9219681,None,858.9220641,None,left,0.6824204000001828,859.4223981999999,None,None,None,None,2.1052631578947367,1.631578947368421,300.0,-300.0,600.0,left,right,,Nick,1,2021_Jul_19_1956,compare_lines,2021.2.0,59.995524333880994,
vertical,0.0,0.0,0.0,0.0,74.0,2.0,298.0,1.0,,,,,,,,,,,,,860.1272088999998,None,860.6391042999999,None,861.6383764,None,right,0.5918985000000703,862.1384054,None,None,None,None,1.0,3.5263157894736836,300.0,-300.0,600.0,right,left,,Nick,1,2021_Jul_19_1956,compare_lines,2021.2.0,59.995524333880994,
diagonal2,0.0,0.0,0.0,0.0,74.0,3.0,299.0,3.0,,,,,,,,,,,,,862.7639063999999,None,863.2715263,None,864.2715883999999,None,right,0.4231947999999193,864.7715344999999,None,None,None,None,1.9473684210526316,3.3684210526315788,300.0,-300.0,600.0,left,right,,Nick,1,2021_Jul_19_1956,compare_lines,2021.2.0,59.995524333880994,
diagonal1,0.0,0.0,0.0,0.0,75.0,0.0,300.0,2.0,,,,,,,,,,,,,865.2258128999998,None,865.7381413999999,None,866.7379558999999,None,down,0.6052505000000109,867.2379377,None,None,None,None,2.5789473684210527,2.5789473684210527,300.0,-300.0,600.0,right,left,,Nick,1,2021_Jul_19_1956,compare_lines,2021.2.0,59.995524333880994,
horizontal,0.0,0.0,0.0,0.0,75.0,1.0,301.0,0.0,,,,,,,,,,,,,867.8751458999999,None,868.3879387,None,869.3880070999999,None,down,0.6769861000000219,869.8879812999999,None,None,None,None,2.421052631578948,2.421052631578948,300.0,-300.0,600.0,left,right,,Nick,1,2021_Jul_19_1956,compare_lines,2021.2.0,59.995524333880994,
diagonal2,0.0,0.0,0.0,0.0,75.0,2.0,302.0,3.0,,,,,,,,,,,,,870.5946569999999,None,871.1045337999999,None,872.1044677999998,None,left,0.3373929000001681,872.6044482999998,None,None,None,None,3.210526315789473,1.631578947368421,300.0,-300.0,600.0,left,right,,Nick,1,2021_Jul_19_1956,compare_lines,2021.2.0,59.995524333880994,
vertical,0.0,0.0,0.0,0.0,75.0,3.0,303.0,1.0,,,,,,,,,,,,,872.9748832,None,873.4877116,None,874.4875849999999,None,down,0.5538671000001614,874.9876179,None,None,None,None,4.0,2.1052631578947367,300.0,-300.0,600.0,left,right,,Nick,1,2021_Jul_19_1956,compare_lines,2021.2.0,59.995524333880994,
horizontal,0.0,0.0,0.0,0.0,76.0,0.0,304.0,0.0,,,,,,,,,,,,,875.5780127999999,None,876.0876188999998,None,877.0875357999998,None,down,0.5861727999999857,877.5875096999998,None,None,None,None,3.842105263157895,3.842105263157895,300.0,-300.0,600.0,left,right,,Nick,1,2021_Jul_19_1956,compare_lines,2021.2.0,59.995524333880994,
diagonal1,0.0,0.0,0.0,0.0,76.0,1.0,305.0,2.0,,,,,,,,,,,,,878.1942161000001,None,878.7040760999998,None,879.7040362,None,left,0.4009817999999541,880.2039864999999,None,None,None,None,2.8947368421052633,2.8947368421052633,300.0,-300.0,600.0,right,left,,Nick,1,2021_Jul_19_1956,compare_lines,2021.2.0,59.995524333880994,
vertical,0.0,0.0,0.0,0.0,76.0,2.0,306.0,1.0,,,,,,,,,,,,,880.6275859999997,None,881.1372646,None,882.1372156999998,None,down,0.5859876000001805,882.6371769,None,None,None,None,3.3684210526315788,2.8947368421052633,300.0,-300.0,600.0,left,right,,Nick,1,2021_Jul_19_1956,compare_lines,2021.2.0,59.995524333880994,
diagonal2,0.0,0.0,0.0,0.0,76.0,3.0,307.0,3.0,,,,,,,,,,,,,883.2418035999998,None,883.7537924999999,None,884.753768,None,down,0.549989000000096,885.2537608999999,None,None,None,None,3.3684210526315788,3.3684210526315788,300.0,-300.0,600.0,left,right,,Nick,1,2021_Jul_19_1956,compare_lines,2021.2.0,59.995524333880994,
horizontal,0.0,0.0,0.0,0.0,77.0,0.0,308.0,0.0,,,,,,,,,,,,,885.8279266000001,None,886.3368653999999,None,887.3369685999999,None,left,0.5474277999999231,887.8370834,None,None,None,None,3.5263157894736836,3.5263157894736836,300.0,-300.0,600.0,right,left,,Nick,1,2021_Jul_19_1956,compare_lines,2021.2.0,59.995524333880994,
vertical,0.0,0.0,0.0,0.0,77.0,1.0,309.0,1.0,,,,,,,,,,,,,888.4102900999999,None,888.9201017999999,None,889.9201120999999,None,left,0.5093718999999055,890.4200914999999,None,None,None,None,3.684210526315789,3.684210526315789,300.0,-300.0,600.0,right,left,,Nick,1,2021_Jul_19_1956,compare_lines,2021.2.0,59.995524333880994,
diagonal2,0.0,0.0,0.0,0.0,77.0,2.0,310.0,3.0,,,,,,,,,,,,,890.9602585000001,None,891.4700637999999,None,892.4699218999999,None,left,0.4503873000001022,892.9699452999998,None,None,None,None,3.210526315789473,1.7894736842105263,300.0,-300.0,600.0,right,left,,Nick,1,2021_Jul_19_1956,compare_lines,2021.2.0,59.995524333880994,
diagonal1,0.0,0.0,0.0,0.0,77.0,3.0,311.0,2.0,,,,,,,,,,,,,893.4434302000001,None,893.9530907999999,None,894.9534177999999,None,left,0.4845758000001297,895.4531617999999,None,None,None,None,3.210526315789473,1.0,300.0,-300.0,600.0,left,right,,Nick,1,2021_Jul_19_1956,compare_lines,2021.2.0,59.995524333880994,
diagonal2,0.0,0.0,0.0,0.0,78.0,0.0,312.0,3.0,,,,,,,,,,,,,895.9600157,None,896.4697051999999,None,897.4696756999999,None,left,0.8534310999998524,897.9696342999998,None,None,None,None,4.0,3.684210526315789,300.0,-300.0,600.0,right,left,,Nick,1,2021_Jul_19_1956,compare_lines,2021.2.0,59.995524333880994,
diagonal1,0.0,0.0,0.0,0.0,78.0,1.0,313.0,2.0,,,,,,,,,,,,,898.8432114,None,899.3528185999999,None,900.3528423,None,right,0.4688990999998168,900.8527922999999,None,None,None,None,2.736842105263157,4.0,300.0,-300.0,600.0,right,left,,Nick,1,2021_Jul_19_1956,compare_lines,2021.2.0,59.995524333880994,
horizontal,0.0,0.0,0.0,0.0,78.0,2.0,314.0,0.0,,,,,,,,,,,,,901.3402419,None,901.8529128,None,902.8526987,None,left,0.4776308000000426,903.3526262999999,None,None,None,None,2.8947368421052633,2.1052631578947367,300.0,-300.0,600.0,left,right,,Nick,1,2021_Jul_19_1956,compare_lines,2021.2.0,59.995524333880994,
vertical,0.0,0.0,0.0,0.0,78.0,3.0,315.0,1.0,,,,,,,,,,,,,903.8594134,None,904.3692859,None,905.3692097999999,None,left,0.4499468000001343,905.8692338999999,None,None,None,None,3.052631578947368,3.052631578947368,300.0,-300.0,600.0,right,left,,Nick,1,2021_Jul_19_1956,compare_lines,2021.2.0,59.995524333880994,
diagonal1,0.0,0.0,0.0,0.0,79.0,0.0,316.0,2.0,,,,,,,,,,,,,906.3432884,None,906.8524616,None,907.8524199999999,None,down,0.5115550000000441,908.3523915999999,None,None,None,None,1.1578947368421053,1.1578947368421053,300.0,-300.0,600.0,left,right,,Nick,1,2021_Jul_19_1956,compare_lines,2021.2.0,59.995524333880994,
vertical,0.0,0.0,0.0,0.0,79.0,1.0,317.0,1.0,,,,,,,,,,,,,908.892619,None,909.4023353999999,None,910.4022648,None,left,0.4340093999999226,910.9022723999999,None,None,None,None,3.684210526315789,1.7894736842105263,300.0,-300.0,600.0,left,right,,Nick,1,2021_Jul_19_1956,compare_lines,2021.2.0,59.995524333880994,
