line_orientation,blocks.thisRepN,blocks.thisTrialN,blocks.thisN,blocks.thisIndex,trials.thisRepN,trials.thisTrialN,trials.thisN,trials.thisIndex,InstructionText.started,InstructionText.stopped,InstructionResponse.keys,InstructionResponse.rt,InstructionResponse.started,InstructionResponse.stopped,BlockText.started,BlockText.stopped,key_resp_2.keys,key_resp_2.rt,key_resp_2.started,key_resp_2.stopped,ISITimer.started,ISITimer.stopped,FirstLineTimer.started,FirstLineTimer.stopped,GapTimer.started,GapTimer.stopped,SeqResponse.keys,SeqResponse.rt,SeqResponse.started,SeqResponse.stopped,ResponseSimul.keys,ResponseSimul.started,ResponseSimul.stopped,left_width,right_width,global_line_length,global_starting_point_left_x,global_distance_between_lines,first_line_label,second_line_label,ResponseSimul.rt,participant,session,date,expName,psychopyVersion,frameRate,
,,,,,,,,,6.817066036999904,None,space,26.671901912000067,6.817066036999904,None,,,,,,,,,,,,,,,,,,,,,,,,,,,,dave,001,2021_Jul_22_1223,compare_lines,2021.1.4,60.02907928654828,
vertical,0,0,0,0,0,0,0,1,,,,,,,33.505395529,None,space,7.883459867000056,33.505395529,None,41.40524254899992,None,41.91243368400001,None,42.922145215,None,left,0.7526948100000936,43.422153466000054,None,None,None,None,1.7894736842105263,1.7894736842105263,300,-300,600,right,left,,dave,001,2021_Jul_22_1223,compare_lines,2021.1.4,60.02907928654828,
horizontal,0,0,0,0,0,1,1,0,,,,,,,,,,,,,44.18884633799985,None,44.688760903,None,45.68874425099989,None,down,0.9693963060001352,46.188843830999986,None,None,None,None,1.7894736842105263,2.1052631578947367,300,-300,600,right,left,,dave,001,2021_Jul_22_1223,compare_lines,2021.1.4,60.02907928654828,
diagonal1,0,0,0,0,0,2,2,2,,,,,,,,,,,,,47.17209709099984,None,47.672175070999856,None,48.67231912399984,None,down,1.2171708570001556,49.172298072999865,None,None,None,None,2.7368421052631575,3.526315789473684,300,-300,600,right,left,,dave,001,2021_Jul_22_1223,compare_lines,2021.1.4,60.02907928654828,
diagonal2,0,0,0,0,0,3,3,3,,,,,,,,,,,,,50.405700515000035,None,50.90569433499991,None,51.90581401600002,None,down,0.9361388530001022,52.40581090799992,None,None,None,None,2.263157894736842,2.263157894736842,300,-300,600,left,right,,dave,001,2021_Jul_22_1223,compare_lines,2021.1.4,60.02907928654828,
vertical,0,0,0,0,1,0,4,1,,,,,,,,,,,,,53.355680196999856,None,53.855675666000025,None,54.8557591849999,None,right,0.6852186149999397,55.359211783999854,None,None,None,None,1.4736842105263157,2.894736842105263,300,-300,600,left,right,,dave,001,2021_Jul_22_1223,compare_lines,2021.1.4,60.02907928654828,
diagonal2,0,0,0,0,1,1,5,3,,,,,,,,,,,,,56.05596905699986,None,56.55589012099995,None,57.55586422800002,None,left,1.4006437630000619,58.05578445299989,None,None,None,None,3.2105263157894735,2.894736842105263,300,-300,600,right,left,,dave,001,2021_Jul_22_1223,compare_lines,2021.1.4,60.02907928654828,
horizontal,0,0,0,0,1,2,6,0,,,,,,,,,,,,,59.47263283999996,None,59.972717028000034,None,60.972684198000024,None,left,0.6966003860000001,61.47878883699991,None,None,None,None,2.1052631578947367,1.1578947368421053,300,-300,600,right,left,,dave,001,2021_Jul_22_1223,compare_lines,2021.1.4,60.02907928654828,
diagonal1,0,0,0,0,1,3,7,2,,,,,,,,,,,,,62.189165366,None,62.68924973999992,None,63.68946272999983,None,left,0.5542314899998928,64.189526505,None,None,None,None,2.7368421052631575,1.631578947368421,300,-300,600,right,left,,dave,001,2021_Jul_22_1223,compare_lines,2021.1.4,60.02907928654828,
vertical,0,0,0,0,2,0,8,1,,,,,,,,,,,,,64.75621874600006,None,65.25610837699992,None,66.25618832299983,None,right,0.419667268000012,66.75621962299988,None,None,None,None,1.0,1.9473684210526314,300,-300,600,left,right,,dave,001,2021_Jul_22_1223,compare_lines,2021.1.4,60.02907928654828,
diagonal1,0,0,0,0,2,1,9,2,,,,,,,,,,,,,67.18959864099998,None,67.689633082,None,68.69000855199988,None,down,0.7207729869999184,69.19014614799994,None,None,None,None,3.3684210526315788,3.3684210526315788,300,-300,600,left,right,,dave,001,2021_Jul_22_1223,compare_lines,2021.1.4,60.02907928654828,
diagonal2,0,0,0,0,2,2,10,3,,,,,,,,,,,,,69.92397984099989,None,70.42415294399984,None,71.42467332799993,None,down,0.6542125819999001,71.92479827399984,None,None,None,None,3.2105263157894735,3.2105263157894735,300,-300,600,right,left,,dave,001,2021_Jul_22_1223,compare_lines,2021.1.4,60.02907928654828,
horizontal,0,0,0,0,2,3,11,0,,,,,,,,,,,,,72.59192087999986,None,73.09206001100006,None,74.09241782699996,None,down,0.8048667479999949,74.59263239200004,None,None,None,None,1.0,1.0,300,-300,600,right,left,,dave,001,2021_Jul_22_1223,compare_lines,2021.1.4,60.02907928654828,
horizontal,0,0,0,0,3,0,12,0,,,,,,,,,,,,,75.40964393599984,None,75.909964468,None,76.91023448099986,None,left,0.5379992880000373,77.41039055199985,None,None,None,None,3.8421052631578947,2.4210526315789473,300,-300,600,right,left,,dave,001,2021_Jul_22_1223,compare_lines,2021.1.4,60.02907928654828,
diagonal1,0,0,0,0,3,1,13,2,,,,,,,,,,,,,77.9606655,None,78.46075725299988,None,79.46115858799999,None,right,0.938516398000047,79.96132644299996,None,None,None,None,2.1052631578947367,2.894736842105263,300,-300,600,right,left,,dave,001,2021_Jul_22_1223,compare_lines,2021.1.4,60.02907928654828,
diagonal2,0,0,0,0,3,2,14,3,,,,,,,,,,,,,80.91166086299995,None,81.41187774199989,None,82.41215178799985,None,right,0.9552957270000206,82.91232070899991,None,None,None,None,3.3684210526315788,3.6842105263157894,300,-300,600,left,right,,dave,001,2021_Jul_22_1223,compare_lines,2021.1.4,60.02907928654828,
vertical,0,0,0,0,3,3,15,1,,,,,,,,,,,,,83.87941155099998,None,84.37953914499985,None,85.37985207299994,None,left,0.8536831270000675,85.87999480200006,None,None,None,None,1.631578947368421,1.7894736842105263,300,-300,600,right,left,,dave,001,2021_Jul_22_1223,compare_lines,2021.1.4,60.02907928654828,
vertical,0,0,0,0,4,0,16,1,,,,,,,,,,,,,86.74683767399983,None,87.24705665600004,None,88.2474284089999,None,left,0.47104866100016807,88.74758416899999,None,None,None,None,3.3684210526315788,1.4736842105263157,300,-300,600,right,left,,dave,001,2021_Jul_22_1223,compare_lines,2021.1.4,60.02907928654828,
horizontal,0,0,0,0,4,1,17,0,,,,,,,,,,,,,89.2309217689999,None,89.73137955899983,None,90.73137073499993,None,left,0.6209057940000093,91.231577324,None,None,None,None,1.4736842105263157,1.1578947368421053,300,-300,600,right,left,,dave,001,2021_Jul_22_1223,compare_lines,2021.1.4,60.02907928654828,
diagonal1,0,0,0,0,4,2,18,2,,,,,,,,,,,,,91.86502031400005,None,92.36524700999985,None,93.365548214,None,left,0.4879228150000472,93.865546128,None,None,None,None,3.526315789473684,2.4210526315789473,300,-300,600,right,left,,dave,001,2021_Jul_22_1223,compare_lines,2021.1.4,60.02907928654828,
diagonal2,0,0,0,0,4,3,19,3,,,,,,,,,,,,,94.36576801599995,None,94.86579791999998,None,95.86615168899993,None,left,0.5045858040000439,96.36633968299998,None,None,None,None,2.4210526315789473,2.4210526315789473,300,-300,600,right,left,,dave,001,2021_Jul_22_1223,compare_lines,2021.1.4,60.02907928654828,
diagonal1,0,0,0,0,5,0,20,2,,,,,,,,,,,,,96.88311916999987,None,97.383046165,None,98.38349234499992,None,right,0.653805913000042,98.8835453019999,None,None,None,None,2.4210526315789473,4.0,300,-300,600,right,left,,dave,001,2021_Jul_22_1223,compare_lines,2021.1.4,60.02907928654828,
horizontal,0,0,0,0,5,1,21,0,,,,,,,,,,,,,99.55045964299984,None,100.05036327399989,None,101.05057165499989,None,right,0.47109495699987747,101.550705676,None,None,None,None,2.894736842105263,3.052631578947368,300,-300,600,left,right,,dave,001,2021_Jul_22_1223,compare_lines,2021.1.4,60.02907928654828,
diagonal2,0,0,0,0,5,2,22,3,,,,,,,,,,,,,102.03429669499997,None,102.53441293900005,None,103.53465124099989,None,left,0.6202647439999964,104.03471304799996,None,None,None,None,1.7894736842105263,1.4736842105263157,300,-300,600,right,left,,dave,001,2021_Jul_22_1223,compare_lines,2021.1.4,60.02907928654828,
vertical,0,0,0,0,5,3,23,1,,,,,,,,,,,,,104.66807966600004,None,105.16819802700002,None,106.16851646700002,None,down,1.1672552949999044,106.66859565599998,None,None,None,None,1.1578947368421053,2.4210526315789473,300,-300,600,right,left,,dave,001,2021_Jul_22_1223,compare_lines,2021.1.4,60.02907928654828,
horizontal,0,0,0,0,6,0,24,0,,,,,,,,,,,,,107.85219247999999,None,108.35227351100002,None,109.35237909299985,None,left,0.5701302780000788,109.85259875399993,None,None,None,None,3.2105263157894735,1.3157894736842106,300,-300,600,right,left,,dave,001,2021_Jul_22_1223,compare_lines,2021.1.4,60.02907928654828,
vertical,0,0,0,0,6,1,25,1,,,,,,,,,,,,,110.43581560999996,None,110.93596667499992,None,111.93617124599996,None,down,0.6873601570000574,112.43632763899996,None,None,None,None,4.0,4.0,300,-300,600,right,left,,dave,001,2021_Jul_22_1223,compare_lines,2021.1.4,60.02907928654828,
diagonal2,0,0,0,0,6,2,26,3,,,,,,,,,,,,,113.13648524099995,None,113.63662376599996,None,114.63674488299989,None,down,0.7714583930001027,115.13675514299985,None,None,None,None,2.263157894736842,2.263157894736842,300,-300,600,left,right,,dave,001,2021_Jul_22_1223,compare_lines,2021.1.4,60.02907928654828,
diagonal1,0,0,0,0,6,3,27,2,,,,,,,,,,,,,115.92029180999998,None,116.42034770299983,None,117.42050633300005,None,left,0.9703393199999937,117.92062683299991,None,None,None,None,2.7368421052631575,1.0,300,-300,600,left,right,,dave,001,2021_Jul_22_1223,compare_lines,2021.1.4,60.02907928654828,
diagonal2,0,0,0,0,7,0,28,3,,,,,,,,,,,,,118.90403121700001,None,119.40408241799992,None,120.40431514500006,None,right,0.6263297400000738,120.91538862799985,None,None,None,None,1.0,3.8421052631578947,300,-300,600,right,left,,dave,001,2021_Jul_22_1223,compare_lines,2021.1.4,60.02907928654828,
vertical,0,0,0,0,7,1,29,1,,,,,,,,,,,,,121.55446956699984,None,122.05455734799989,None,123.05489287799992,None,left,0.8047040310000284,123.55489402399985,None,None,None,None,1.7894736842105263,2.5789473684210527,300,-300,600,right,left,,dave,001,2021_Jul_22_1223,compare_lines,2021.1.4,60.02907928654828,
horizontal,0,0,0,0,7,2,30,0,,,,,,,,,,,,,124.37167023500001,None,124.87179229200001,None,125.87192080099999,None,down,0.6360808160000033,126.37207194500002,None,None,None,None,3.3684210526315788,3.3684210526315788,300,-300,600,left,right,,dave,001,2021_Jul_22_1223,compare_lines,2021.1.4,60.02907928654828,
diagonal1,0,0,0,0,7,3,31,2,,,,,,,,,,,,,127.02212967399987,None,127.52215310799988,None,128.52207425200004,None,left,0.838475199999948,129.02233140099997,None,None,None,None,3.052631578947368,1.7894736842105263,300,-300,600,left,right,,dave,001,2021_Jul_22_1223,compare_lines,2021.1.4,60.02907928654828,
vertical,0,0,0,0,8,0,32,1,,,,,,,,,,,,,129.8725312009999,None,130.37250582499996,None,131.37280644399993,None,down,0.738017975000048,131.87278148299993,None,None,None,None,1.4736842105263157,1.4736842105263157,300,-300,600,right,left,,dave,001,2021_Jul_22_1223,compare_lines,2021.1.4,60.02907928654828,
horizontal,0,0,0,0,8,1,33,0,,,,,,,,,,,,,132.62298927300003,None,133.123002498,None,134.12299574400004,None,left,0.6201460769998448,134.623203354,None,None,None,None,2.7368421052631575,2.7368421052631575,300,-300,600,right,left,,dave,001,2021_Jul_22_1223,compare_lines,2021.1.4,60.02907928654828,
diagonal1,0,0,0,0,8,2,34,2,,,,,,,,,,,,,135.2566173969999,None,135.756689198,None,136.7567706719999,None,left,0.5867510619998484,137.25676141300005,None,None,None,None,3.6842105263157894,1.3157894736842106,300,-300,600,left,right,,dave,001,2021_Jul_22_1223,compare_lines,2021.1.4,60.02907928654828,
diagonal2,0,0,0,0,8,3,35,3,,,,,,,,,,,,,137.85687680299998,None,138.3569869129999,None,139.357112637,None,down,0.7211962489998314,139.85717259299986,None,None,None,None,4.0,3.2105263157894735,300,-300,600,left,right,,dave,001,2021_Jul_22_1223,compare_lines,2021.1.4,60.02907928654828,
diagonal1,0,0,0,0,9,0,36,2,,,,,,,,,,,,,140.59065285299994,None,141.0903155819999,None,142.090612169,None,down,0.6874900289999459,142.5907997879999,None,None,None,None,3.8421052631578947,3.8421052631578947,300,-300,600,right,left,,dave,001,2021_Jul_22_1223,compare_lines,2021.1.4,60.02907928654828,
diagonal2,0,0,0,0,9,1,37,3,,,,,,,,,,,,,143.29089161399997,None,143.79131924299986,None,144.79107207799984,None,right,0.7859924180002054,145.2912902569999,None,None,None,None,2.263157894736842,3.3684210526315788,300,-300,600,left,right,,dave,001,2021_Jul_22_1223,compare_lines,2021.1.4,60.02907928654828,
vertical,0,0,0,0,9,2,38,1,,,,,,,,,,,,,146.09534154799985,None,146.60805010599984,None,147.60818407199986,None,down,0.8369963650000045,148.1082499449999,None,None,None,None,2.5789473684210527,1.631578947368421,300,-300,600,left,right,,dave,001,2021_Jul_22_1223,compare_lines,2021.1.4,60.02907928654828,
horizontal,0,0,0,0,9,3,39,0,,,,,,,,,,,,,148.95820012599984,None,149.458379832,None,150.45847386499986,None,down,0.5868007220001346,150.95846208600005,None,None,None,None,3.2105263157894735,3.2105263157894735,300,-300,600,right,left,,dave,001,2021_Jul_22_1223,compare_lines,2021.1.4,60.02907928654828,
diagonal2,0,0,0,0,10,0,40,3,,,,,,,,,,,,,151.55853220599988,None,152.05892379099987,None,153.05875241399985,None,down,0.9048335130000851,153.55893323500004,None,None,None,None,1.3157894736842106,1.3157894736842106,300,-300,600,left,right,,dave,001,2021_Jul_22_1223,compare_lines,2021.1.4,60.02907928654828,
diagonal1,0,0,0,0,10,1,41,2,,,,,,,,,,,,,154.47563277799986,None,154.975702769,None,155.97571720799988,None,left,0.5042233320000378,156.47587166799985,None,None,None,None,2.5789473684210527,1.0,300,-300,600,left,right,,dave,001,2021_Jul_22_1223,compare_lines,2021.1.4,60.02907928654828,
vertical,0,0,0,0,10,2,42,1,,,,,,,,,,,,,156.99278059499989,None,157.49270232000003,None,158.49265935899984,None,left,0.504707585999995,158.9927434839999,None,None,None,None,3.052631578947368,1.9473684210526314,300,-300,600,left,right,,dave,001,2021_Jul_22_1223,compare_lines,2021.1.4,60.02907928654828,
horizontal,0,0,0,0,10,3,43,0,,,,,,,,,,,,,159.50960913199992,None,160.00963585499994,None,161.00972034300003,None,down,1.9676433729998735,161.5097441769999,None,None,None,None,1.9473684210526314,2.894736842105263,300,-300,600,left,right,,dave,001,2021_Jul_22_1223,compare_lines,2021.1.4,60.02907928654828,
diagonal2,0,0,0,0,11,0,44,3,,,,,,,,,,,,,163.49325703599993,None,163.993319402,None,164.9933558979999,None,right,0.6716740739998386,165.4935295749999,None,None,None,None,3.3684210526315788,3.3684210526315788,300,-300,600,left,right,,dave,001,2021_Jul_22_1223,compare_lines,2021.1.4,60.02907928654828,
vertical,0,0,0,0,11,1,45,1,,,,,,,,,,,,,166.176925322,None,166.6769974839999,None,167.67705186099988,None,right,0.4214588150000509,168.177023103,None,None,None,None,1.0,3.3684210526315788,300,-300,600,left,right,,dave,001,2021_Jul_22_1223,compare_lines,2021.1.4,60.02907928654828,
horizontal,0,0,0,0,11,2,46,0,,,,,,,,,,,,,168.61056851299986,None,169.11043808499994,None,170.11074110000004,None,left,0.7376553230001264,170.61063898899988,None,None,None,None,2.7368421052631575,1.1578947368421053,300,-300,600,right,left,,dave,001,2021_Jul_22_1223,compare_lines,2021.1.4,60.02907928654828,
diagonal1,0,0,0,0,11,3,47,2,,,,,,,,,,,,,171.360722464,None,171.86078486799988,None,172.86083997800006,None,down,0.7211487219999526,173.36094552199984,None,None,None,None,3.526315789473684,3.2105263157894735,300,-300,600,left,right,,dave,001,2021_Jul_22_1223,compare_lines,2021.1.4,60.02907928654828,
horizontal,0,0,0,0,12,0,48,0,,,,,,,,,,,,,174.09436618099994,None,174.5944691279999,None,175.59460786599993,None,down,0.7033444860001055,176.094600872,None,None,None,None,1.0,1.0,300,-300,600,right,left,,dave,001,2021_Jul_22_1223,compare_lines,2021.1.4,60.02907928654828,
diagonal1,0,0,0,0,12,1,49,2,,,,,,,,,,,,,176.8114773719999,None,177.31139084200004,None,178.3115571159999,None,right,0.6052105339999798,178.81138835799993,None,None,None,None,1.0,2.894736842105263,300,-300,600,right,left,,dave,001,2021_Jul_22_1223,compare_lines,2021.1.4,60.02907928654828,
vertical,0,0,0,0,12,2,50,1,,,,,,,,,,,,,179.42829150299985,None,179.92831555899988,None,180.92835644299998,None,right,0.5872476160000133,181.42855400999997,None,None,None,None,1.7894736842105263,3.8421052631578947,300,-300,600,right,left,,dave,001,2021_Jul_22_1223,compare_lines,2021.1.4,60.02907928654828,
diagonal2,0,0,0,0,12,3,51,3,,,,,,,,,,,,,182.0286102959999,None,182.52857905999986,None,183.52859701299985,None,left,0.6888183529999878,184.02873360900003,None,None,None,None,3.2105263157894735,3.052631578947368,300,-300,600,right,left,,dave,001,2021_Jul_22_1223,compare_lines,2021.1.4,60.02907928654828,
diagonal2,0,0,0,0,13,0,52,3,,,,,,,,,,,,,184.72878812,None,185.2288386099999,None,186.22885369100004,None,left,0.620240393000131,186.72893351499988,None,None,None,None,2.5789473684210527,1.3157894736842106,300,-300,600,left,right,,dave,001,2021_Jul_22_1223,compare_lines,2021.1.4,60.02907928654828,
vertical,0,0,0,0,13,1,53,1,,,,,,,,,,,,,187.3622659539999,None,187.86233356699995,None,188.86258128199984,None,left,0.6707752479999272,189.36252070299997,None,None,None,None,1.631578947368421,2.1052631578947367,300,-300,600,right,left,,dave,001,2021_Jul_22_1223,compare_lines,2021.1.4,60.02907928654828,
diagonal1,0,0,0,0,13,2,54,2,,,,,,,,,,,,,190.04598340100006,None,190.5460645369999,None,191.54606154499993,None,right,0.4874365109999417,192.04620293499988,None,None,None,None,1.0,3.2105263157894735,300,-300,600,left,right,,dave,001,2021_Jul_22_1223,compare_lines,2021.1.4,60.02907928654828,
horizontal,0,0,0,0,13,3,55,0,,,,,,,,,,,,,192.54622984699995,None,193.0462318729999,None,194.04635028799999,None,down,0.5877632220001487,194.5463927369999,None,None,None,None,1.4736842105263157,1.9473684210526314,300,-300,600,right,left,,dave,001,2021_Jul_22_1223,compare_lines,2021.1.4,60.02907928654828,
vertical,0,0,0,0,14,0,56,1,,,,,,,,,,,,,195.14649261,None,195.64645125699985,None,196.646459155,None,down,0.5698902139999973,197.14654336499984,None,None,None,None,1.4736842105263157,2.4210526315789473,300,-300,600,right,left,,dave,001,2021_Jul_22_1223,compare_lines,2021.1.4,60.02907928654828,
horizontal,0,0,0,0,14,1,57,0,,,,,,,,,,,,,197.72991242700004,None,198.22976932899996,None,199.22986577999995,None,down,0.553030169000067,199.72990412599984,None,None,None,None,1.3157894736842106,1.631578947368421,300,-300,600,left,right,,dave,001,2021_Jul_22_1223,compare_lines,2021.1.4,60.02907928654828,
diagonal1,0,0,0,0,14,2,58,2,,,,,,,,,,,,,200.29632800299987,None,200.79643199399993,None,201.79658044300004,None,right,0.5881412080000246,202.29650094199997,None,None,None,None,1.0,2.4210526315789473,300,-300,600,right,left,,dave,001,2021_Jul_22_1223,compare_lines,2021.1.4,60.02907928654828,
diagonal2,0,0,0,0,14,3,59,3,,,,,,,,,,,,,202.89655670499997,None,203.39666677399987,None,204.3966141599999,None,right,0.5546780509998825,204.89651115599986,None,None,None,None,1.0,2.263157894736842,300,-300,600,right,left,,dave,001,2021_Jul_22_1223,compare_lines,2021.1.4,60.02907928654828,
diagonal1,0,0,0,0,15,0,60,2,,,,,,,,,,,,,205.4632704569999,None,205.96322209200002,None,206.96326448699983,None,down,0.8368506000001616,207.46330143199998,None,None,None,None,3.8421052631578947,3.6842105263157894,300,-300,600,right,left,,dave,001,2021_Jul_22_1223,compare_lines,2021.1.4,60.02907928654828,
horizontal,0,0,0,0,15,1,61,0,,,,,,,,,,,,,208.31332551399987,None,208.81334260099993,None,209.81335888399985,None,left,0.9542717350000203,210.31332749399985,None,None,None,None,4.0,4.0,300,-300,600,right,left,,dave,001,2021_Jul_22_1223,compare_lines,2021.1.4,60.02907928654828,
diagonal2,0,0,0,0,15,2,62,3,,,,,,,,,,,,,211.28000633800002,None,211.78007127299998,None,212.78007284799992,None,down,1.1339127589999407,213.2800256999999,None,None,None,None,4.0,4.0,300,-300,600,right,left,,dave,001,2021_Jul_22_1223,compare_lines,2021.1.4,60.02907928654828,
vertical,0,0,0,0,15,3,63,1,,,,,,,,,,,,,214.43003392499986,None,214.93013557299992,None,215.93009727899994,None,right,0.8036627630001476,216.430095122,None,None,None,None,2.7368421052631575,3.052631578947368,300,-300,600,right,left,,dave,001,2021_Jul_22_1223,compare_lines,2021.1.4,60.02907928654828,
vertical,0,0,0,0,16,0,64,1,,,,,,,,,,,,,217.24688250400004,None,217.74672937800005,None,218.74680725999997,None,left,0.5199146239999664,219.24694812300004,None,None,None,None,3.526315789473684,1.9473684210526314,300,-300,600,left,right,,dave,001,2021_Jul_22_1223,compare_lines,2021.1.4,60.02907928654828,
diagonal2,0,0,0,0,16,1,65,3,,,,,,,,,,,,,219.78025571900002,None,220.28016493199993,None,221.28024660799997,None,left,0.6388738990001457,221.780186512,None,None,None,None,2.894736842105263,2.7368421052631575,300,-300,600,right,left,,dave,001,2021_Jul_22_1223,compare_lines,2021.1.4,60.02907928654828,
horizontal,0,0,0,0,16,2,66,0,,,,,,,,,,,,,222.43038094899998,None,222.93033365199994,None,223.93033314700006,None,right,0.5371093710000423,224.430316469,None,None,None,None,2.7368421052631575,3.2105263157894735,300,-300,600,left,right,,dave,001,2021_Jul_22_1223,compare_lines,2021.1.4,60.02907928654828,
diagonal1,0,0,0,0,16,3,67,2,,,,,,,,,,,,,224.98035047400003,None,225.48033847199986,None,226.48037515800002,None,down,1.267220314000042,226.9804474969999,None,None,None,None,3.3684210526315788,3.3684210526315788,300,-300,600,right,left,,dave,001,2021_Jul_22_1223,compare_lines,2021.1.4,60.02907928654828,
horizontal,0,0,0,0,17,0,68,0,,,,,,,,,,,,,228.26379767000003,None,228.76380728899994,None,229.763891714,None,right,0.5866218870000921,230.263830053,None,None,None,None,2.894736842105263,4.0,300,-300,600,right,left,,dave,001,2021_Jul_22_1223,compare_lines,2021.1.4,60.02907928654828,
diagonal1,0,0,0,0,17,1,69,2,,,,,,,,,,,,,230.86389656699998,None,231.36425663499995,None,232.363881902,None,down,0.7034714449998773,232.86396132100003,None,None,None,None,3.526315789473684,3.526315789473684,300,-300,600,right,left,,dave,001,2021_Jul_22_1223,compare_lines,2021.1.4,60.02907928654828,
diagonal2,0,0,0,0,17,2,70,3,,,,,,,,,,,,,233.58068169800003,None,234.0807010189999,None,235.08070507399998,None,left,0.737491842000054,235.58074079799985,None,None,None,None,1.9473684210526314,1.9473684210526314,300,-300,600,right,left,,dave,001,2021_Jul_22_1223,compare_lines,2021.1.4,60.02907928654828,
vertical,0,0,0,0,17,3,71,1,,,,,,,,,,,,,236.33076655900004,None,236.83505560499998,None,237.84737401300004,None,down,0.7376761980001447,238.34751240499986,None,None,None,None,1.9473684210526314,1.631578947368421,300,-300,600,left,right,,dave,001,2021_Jul_22_1223,compare_lines,2021.1.4,60.02907928654828,
diagonal2,0,0,0,0,18,0,72,3,,,,,,,,,,,,,239.09747939,None,239.5975559189999,None,240.597293241,None,left,0.6046974739999769,241.09737192800003,None,None,None,None,3.6842105263157894,1.631578947368421,300,-300,600,left,right,,dave,001,2021_Jul_22_1223,compare_lines,2021.1.4,60.02907928654828,
vertical,0,0,0,0,18,1,73,1,,,,,,,,,,,,,241.71439290700005,None,242.21430969899984,None,243.21426126200004,None,down,0.5203322679999474,243.71427010000002,None,None,None,None,3.2105263157894735,1.9473684210526314,300,-300,600,right,left,,dave,001,2021_Jul_22_1223,compare_lines,2021.1.4,60.02907928654828,
diagonal1,0,0,0,0,18,2,74,2,,,,,,,,,,,,,244.24763749999988,None,244.74771865399998,None,245.7477618979999,None,left,0.46922199400000864,246.24772984599986,None,None,None,None,2.1052631578947367,2.1052631578947367,300,-300,600,right,left,,dave,001,2021_Jul_22_1223,compare_lines,2021.1.4,60.02907928654828,
horizontal,0,0,0,0,18,3,75,0,,,,,,,,,,,,,246.73107675799997,None,247.23096767399988,None,248.23116635999986,None,down,0.6370020950000708,248.73122808199992,None,None,None,None,1.9473684210526314,1.9473684210526314,300,-300,600,left,right,,dave,001,2021_Jul_22_1223,compare_lines,2021.1.4,60.02907928654828,
diagonal1,0,0,0,0,19,0,76,2,,,,,,,,,,,,,249.381260463,None,249.88132905199996,None,250.88140101599993,None,right,0.6871102139998584,251.38147092199983,None,None,None,None,3.3684210526315788,3.526315789473684,300,-300,600,left,right,,dave,001,2021_Jul_22_1223,compare_lines,2021.1.4,60.02907928654828,
horizontal,0,0,0,0,19,1,77,0,,,,,,,,,,,,,252.0812392979999,None,252.581407635,None,253.58152857000005,None,left,0.6211993060001078,254.08155220699996,None,None,None,None,3.2105263157894735,1.1578947368421053,300,-300,600,left,right,,dave,001,2021_Jul_22_1223,compare_lines,2021.1.4,60.02907928654828,
vertical,0,0,0,0,19,2,78,1,,,,,,,,,,,,,254.71476033199997,None,255.21490798299988,None,256.21493984899985,None,down,0.8371468340001229,256.7149976799999,None,None,None,None,2.5789473684210527,2.5789473684210527,300,-300,600,right,left,,dave,001,2021_Jul_22_1223,compare_lines,2021.1.4,60.02907928654828,
diagonal2,0,0,0,0,19,3,79,3,,,,,,,,,,,,,257.564962313,None,258.065091401,None,259.06501897399994,None,right,1.2339501050000763,259.5650623219999,None,None,None,None,1.9473684210526314,2.263157894736842,300,-300,600,left,right,,dave,001,2021_Jul_22_1223,compare_lines,2021.1.4,60.02907928654828,
diagonal2,0,0,0,0,20,0,80,3,,,,,,,,,,,,,260.815094154,None,261.315211032,None,262.3152752809999,None,left,0.5365787929999897,262.8152499339999,None,None,None,None,4.0,1.631578947368421,300,-300,600,right,left,,dave,001,2021_Jul_22_1223,compare_lines,2021.1.4,60.02907928654828,
diagonal1,0,0,0,0,20,1,81,2,,,,,,,,,,,,,263.365282493,None,263.86526893899986,None,264.865268042,None,down,0.9838313369998559,265.3651867389999,None,None,None,None,2.5789473684210527,2.263157894736842,300,-300,600,left,right,,dave,001,2021_Jul_22_1223,compare_lines,2021.1.4,60.02907928654828,
horizontal,0,0,0,0,20,2,82,0,,,,,,,,,,,,,266.3653660529999,None,266.865366342,None,267.8655028779999,None,down,0.7212991500000498,268.36544824,None,None,None,None,1.9473684210526314,1.7894736842105263,300,-300,600,right,left,,dave,001,2021_Jul_22_1223,compare_lines,2021.1.4,60.02907928654828,
vertical,0,0,0,0,20,3,83,1,,,,,,,,,,,,,269.098901525,None,269.5989826,None,270.599089652,None,down,0.7544273399998929,271.0989886489999,None,None,None,None,2.894736842105263,2.894736842105263,300,-300,600,right,left,,dave,001,2021_Jul_22_1223,compare_lines,2021.1.4,60.02907928654828,
diagonal2,0,0,0,0,21,0,84,3,,,,,,,,,,,,,271.86574405500005,None,272.36564759299995,None,273.365841349,None,right,0.569959444999995,273.865841283,None,None,None,None,2.263157894736842,3.052631578947368,300,-300,600,left,right,,dave,001,2021_Jul_22_1223,compare_lines,2021.1.4,60.02907928654828,
horizontal,0,0,0,0,21,1,85,0,,,,,,,,,,,,,274.44901354499984,None,274.94911359799994,None,275.949259147,None,left,0.4716590410000663,276.44940482699985,None,None,None,None,3.526315789473684,2.1052631578947367,300,-300,600,left,right,,dave,001,2021_Jul_22_1223,compare_lines,2021.1.4,60.02907928654828,
diagonal1,0,0,0,0,21,2,86,2,,,,,,,,,,,,,276.93266868,None,277.4326011789999,None,278.4327375109999,None,right,0.5375757780000185,278.9327852849999,None,None,None,None,2.7368421052631575,4.0,300,-300,600,right,left,,dave,001,2021_Jul_22_1223,compare_lines,2021.1.4,60.02907928654828,
vertical,0,0,0,0,21,3,87,1,,,,,,,,,,,,,279.4827329259999,None,279.9829601229999,None,280.98296575099994,None,left,0.604327178000176,281.483043813,None,None,None,None,3.2105263157894735,1.4736842105263157,300,-300,600,left,right,,dave,001,2021_Jul_22_1223,compare_lines,2021.1.4,60.02907928654828,
vertical,0,0,0,0,22,0,88,1,,,,,,,,,,,,,282.099713907,None,282.5997651989999,None,283.59972115100004,None,down,1.3004379770000014,284.09974998999996,None,None,None,None,1.3157894736842106,1.3157894736842106,300,-300,600,right,left,,dave,001,2021_Jul_22_1223,compare_lines,2021.1.4,60.02907928654828,
diagonal2,0,0,0,0,22,1,89,3,,,,,,,,,,,,,285.41647143399996,None,285.91650756399986,None,286.9167344949999,None,down,2.00054868899997,287.41658429799986,None,None,None,None,3.052631578947368,4.0,300,-300,600,left,right,,dave,001,2021_Jul_22_1223,compare_lines,2021.1.4,60.02907928654828,
diagonal1,0,0,0,0,22,2,90,2,,,,,,,,,,,,,289.43335402799994,None,289.93346772199993,None,290.93354504900003,None,down,1.1171846600000208,291.43358658500006,None,None,None,None,2.1052631578947367,2.1052631578947367,300,-300,600,left,right,,dave,001,2021_Jul_22_1223,compare_lines,2021.1.4,60.02907928654828,
horizontal,0,0,0,0,22,3,91,0,,,,,,,,,,,,,292.566927502,None,293.067029026,None,294.06705033000003,None,down,0.8208246920000875,294.56708646699985,None,None,None,None,2.263157894736842,2.263157894736842,300,-300,600,right,left,,dave,001,2021_Jul_22_1223,compare_lines,2021.1.4,60.02907928654828,
horizontal,0,0,0,0,23,0,92,0,,,,,,,,,,,,,295.40066054199997,None,295.900418939,None,296.90060379099987,None,right,0.9711978300001647,297.400593953,None,None,None,None,3.8421052631578947,3.3684210526315788,300,-300,600,left,right,,dave,001,2021_Jul_22_1223,compare_lines,2021.1.4,60.02907928654828,
diagonal1,0,0,0,0,23,1,93,2,,,,,,,,,,,,,298.3839969999999,None,298.8839646629999,None,299.88406529199983,None,down,0.6547303459999512,300.38413000399987,None,None,None,None,4.0,4.0,300,-300,600,right,left,,dave,001,2021_Jul_22_1223,compare_lines,2021.1.4,60.02907928654828,
diagonal2,0,0,0,0,23,2,94,3,,,,,,,,,,,,,301.0508461059999,None,301.5509284729999,None,302.55084685299994,None,left,0.7885367799999585,303.05083570700003,None,None,None,None,3.8421052631578947,2.1052631578947367,300,-300,600,left,right,,dave,001,2021_Jul_22_1223,compare_lines,2021.1.4,60.02907928654828,
vertical,0,0,0,0,23,3,95,1,,,,,,,,,,,,,303.851058231,None,304.3510687589999,None,305.3510910539999,None,right,0.8054350219999833,305.8511323339999,None,None,None,None,1.0,1.631578947368421,300,-300,600,left,right,,dave,001,2021_Jul_22_1223,compare_lines,2021.1.4,60.02907928654828,
horizontal,0,0,0,0,24,0,96,0,,,,,,,,,,,,,306.66781385700006,None,307.1678631739999,None,308.1680429119999,None,left,0.721690295000144,308.66802252699995,None,None,None,None,3.526315789473684,2.263157894736842,300,-300,600,left,right,,dave,001,2021_Jul_22_1223,compare_lines,2021.1.4,60.02907928654828,
diagonal2,0,0,0,0,24,1,97,3,,,,,,,,,,,,,309.4012891,None,309.9013144329999,None,310.90142998600004,None,down,1.1170469400001366,311.401576385,None,None,None,None,2.263157894736842,2.4210526315789473,300,-300,600,left,right,,dave,001,2021_Jul_22_1223,compare_lines,2021.1.4,60.02907928654828,
vertical,0,0,0,0,24,2,98,1,,,,,,,,,,,,,312.5347233949999,None,313.03494448799984,None,314.0350566279999,None,down,0.7214670930000011,314.53506955700004,None,None,None,None,3.2105263157894735,3.6842105263157894,300,-300,600,right,left,,dave,001,2021_Jul_22_1223,compare_lines,2021.1.4,60.02907928654828,
diagonal1,0,0,0,0,24,3,99,2,,,,,,,,,,,,,315.268390961,None,315.7684217409999,None,316.768387865,None,down,1.3005359819999285,317.26854487900005,None,None,None,None,3.8421052631578947,3.8421052631578947,300,-300,600,left,right,,dave,001,2021_Jul_22_1223,compare_lines,2021.1.4,60.02907928654828,
vertical,0,0,0,0,25,0,100,1,,,,,,,,,,,,,318.5852766149999,None,319.0853322339999,None,320.085356282,None,left,1.0671959999999672,320.5854497099999,None,None,None,None,2.7368421052631575,2.7368421052631575,300,-300,600,right,left,,dave,001,2021_Jul_22_1223,compare_lines,2021.1.4,60.02907928654828,
horizontal,0,0,0,0,25,1,101,0,,,,,,,,,,,,,321.668865506,None,322.1688516469999,None,323.16891714400003,None,down,0.6881858770000235,323.66890459499996,None,None,None,None,3.3684210526315788,4.0,300,-300,600,left,right,,dave,001,2021_Jul_22_1223,compare_lines,2021.1.4,60.02907928654828,
diagonal2,0,0,0,0,25,2,102,3,,,,,,,,,,,,,324.36910935599985,None,324.86910512199984,None,325.86921451399985,None,down,0.5872822149999593,326.369086272,None,None,None,None,1.0,1.0,300,-300,600,right,left,,dave,001,2021_Jul_22_1223,compare_lines,2021.1.4,60.02907928654828,
diagonal1,0,0,0,0,25,3,103,2,,,,,,,,,,,,,326.9691071269999,None,327.46917274199996,None,328.469322702,None,left,0.8382704649998232,328.969097744,None,None,None,None,3.3684210526315788,1.7894736842105263,300,-300,600,left,right,,dave,001,2021_Jul_22_1223,compare_lines,2021.1.4,60.02907928654828,
diagonal2,0,0,0,0,26,0,104,3,,,,,,,,,,,,,329.8194287859999,None,330.31940919,None,331.31942983199997,None,down,0.654140193999865,331.81952222099994,None,None,None,None,3.2105263157894735,3.2105263157894735,300,-300,600,left,right,,dave,001,2021_Jul_22_1223,compare_lines,2021.1.4,60.02907928654828,
horizontal,0,0,0,0,26,1,105,0,,,,,,,,,,,,,332.48617940099984,None,332.98620966199996,None,333.98624528799996,None,left,0.6538105540000743,334.486376326,None,None,None,None,1.631578947368421,1.631578947368421,300,-300,600,right,left,,dave,001,2021_Jul_22_1223,compare_lines,2021.1.4,60.02907928654828,
diagonal1,0,0,0,0,26,2,106,2,,,,,,,,,,,,,335.15304503699986,None,335.65302779599983,None,336.65293149800004,None,down,0.8882699250000314,337.1531742929999,None,None,None,None,1.1578947368421053,1.1578947368421053,300,-300,600,left,right,,dave,001,2021_Jul_22_1223,compare_lines,2021.1.4,60.02907928654828,
vertical,0,0,0,0,26,3,107,1,,,,,,,,,,,,,338.05327828099985,None,338.55321643599996,None,339.553386867,None,left,0.7038771420000103,340.0534585549999,None,None,None,None,1.1578947368421053,1.7894736842105263,300,-300,600,right,left,,dave,001,2021_Jul_22_1223,compare_lines,2021.1.4,60.02907928654828,
vertical,0,0,0,0,27,0,108,1,,,,,,,,,,,,,340.77024606199984,None,341.270204209,None,342.27030378099994,None,left,0.7043892750000396,342.7703013129999,None,None,None,None,3.526315789473684,1.631578947368421,300,-300,600,left,right,,dave,001,2021_Jul_22_1223,compare_lines,2021.1.4,60.02907928654828,
horizontal,0,0,0,0,27,1,109,0,,,,,,,,,,,,,343.4871674379999,None,343.98708174299986,None,344.987060508,None,left,0.5043064349999895,345.48714539699995,None,None,None,None,3.6842105263157894,1.0,300,-300,600,right,left,,dave,001,2021_Jul_22_1223,compare_lines,2021.1.4,60.02907928654828,
diagonal2,0,0,0,0,27,2,110,3,,,,,,,,,,,,,346.003861936,None,346.50386468199986,None,347.503898509,None,left,0.6877750209998794,348.00405422899985,None,None,None,None,2.4210526315789473,2.4210526315789473,300,-300,600,right,left,,dave,001,2021_Jul_22_1223,compare_lines,2021.1.4,60.02907928654828,
diagonal1,0,0,0,0,27,3,111,2,,,,,,,,,,,,,348.70406399499984,None,349.2039408119999,None,350.20410263200006,None,left,0.5212416310000663,350.704251377,None,None,None,None,3.052631578947368,1.631578947368421,300,-300,600,right,left,,dave,001,2021_Jul_22_1223,compare_lines,2021.1.4,60.02907928654828,
horizontal,0,0,0,0,28,0,112,0,,,,,,,,,,,,,351.23760358799996,None,351.73756717599986,None,352.73890484699996,None,left,0.5360688399998708,353.25439459999984,None,None,None,None,3.3684210526315788,2.4210526315789473,300,-300,600,right,left,,dave,001,2021_Jul_22_1223,compare_lines,2021.1.4,60.02907928654828,
diagonal2,0,0,0,0,28,1,113,3,,,,,,,,,,,,,353.804556179,None,354.30449084199995,None,355.30458107100003,None,left,0.721273119999978,355.80460912700005,None,None,None,None,2.7368421052631575,2.1052631578947367,300,-300,600,left,right,,dave,001,2021_Jul_22_1223,compare_lines,2021.1.4,60.02907928654828,
vertical,0,0,0,0,28,2,114,1,,,,,,,,,,,,,356.53787213199985,None,357.03787254400004,None,358.0379576099999,None,down,1.01716444900012,358.53804657599994,None,None,None,None,1.1578947368421053,2.894736842105263,300,-300,600,right,left,,dave,001,2021_Jul_22_1223,compare_lines,2021.1.4,60.02907928654828,
diagonal1,0,0,0,0,28,3,115,2,,,,,,,,,,,,,359.5714908969999,None,360.07149354399985,None,361.07170030299994,None,down,0.8040654930000528,361.5716723779999,None,None,None,None,3.526315789473684,3.6842105263157894,300,-300,600,left,right,,dave,001,2021_Jul_22_1223,compare_lines,2021.1.4,60.02907928654828,
diagonal1,0,0,0,0,29,0,116,2,,,,,,,,,,,,,362.388423849,None,362.8883726679999,None,363.888531242,None,left,1.0002865819999442,364.388526964,None,None,None,None,2.7368421052631575,2.4210526315789473,300,-300,600,right,left,,dave,001,2021_Jul_22_1223,compare_lines,2021.1.4,60.02907928654828,
horizontal,0,0,0,0,29,1,117,0,,,,,,,,,,,,,365.40539044599996,None,365.90516182700003,None,366.905473885,None,right,0.5210131479998381,367.405522604,None,None,None,None,2.263157894736842,4.0,300,-300,600,left,right,,dave,001,2021_Jul_22_1223,compare_lines,2021.1.4,60.02907928654828,
diagonal2,0,0,0,0,29,2,118,3,,,,,,,,,,,,,367.938843204,None,368.438914094,None,369.43897834999984,None,left,0.7868214449999869,369.9390248289999,None,None,None,None,2.894736842105263,1.631578947368421,300,-300,600,left,right,,dave,001,2021_Jul_22_1223,compare_lines,2021.1.4,60.02907928654828,
vertical,0,0,0,0,29,3,119,1,,,,,,,,,,,,,370.73901101499996,None,371.23904974899983,None,372.23908324399986,None,right,0.48648254499994437,372.739188625,None,None,None,None,2.894736842105263,2.894736842105263,300,-300,600,left,right,,dave,001,2021_Jul_22_1223,compare_lines,2021.1.4,60.02907928654828,
vertical,0,0,0,0,30,0,120,1,,,,,,,,,,,,,373.239296642,None,373.73922164099986,None,374.73935686699997,None,right,0.637072162999857,375.239362882,None,None,None,None,3.052631578947368,3.052631578947368,300,-300,600,left,right,,dave,001,2021_Jul_22_1223,compare_lines,2021.1.4,60.02907928654828,
diagonal1,0,0,0,0,30,1,121,2,,,,,,,,,,,,,375.889551492,None,376.38938399699987,None,377.389411076,None,down,0.7711848900000859,377.8895527699999,None,None,None,None,1.1578947368421053,1.1578947368421053,300,-300,600,right,left,,dave,001,2021_Jul_22_1223,compare_lines,2021.1.4,60.02907928654828,
diagonal2,0,0,0,0,30,2,122,3,,,,,,,,,,,,,378.67286875699983,None,379.1729209979999,None,380.172945754,None,right,0.5714987669998663,380.673037133,None,None,None,None,2.894736842105263,3.6842105263157894,300,-300,600,left,right,,dave,001,2021_Jul_22_1223,compare_lines,2021.1.4,60.02907928654828,
horizontal,0,0,0,0,30,3,123,0,,,,,,,,,,,,,381.25645626999994,None,381.75646403099995,None,382.7565155919999,None,down,0.8362798870000461,383.25664087199993,None,None,None,None,3.8421052631578947,3.2105263157894735,300,-300,600,left,right,,dave,001,2021_Jul_22_1223,compare_lines,2021.1.4,60.02907928654828,
horizontal,0,0,0,0,31,0,124,0,,,,,,,,,,,,,384.10669788799987,None,384.606529529,None,385.6067650949999,None,right,0.8037148850000904,386.1067683839999,None,None,None,None,1.1578947368421053,3.3684210526315788,300,-300,600,left,right,,dave,001,2021_Jul_22_1223,compare_lines,2021.1.4,60.02907928654828,
diagonal1,0,0,0,0,31,1,125,2,,,,,,,,,,,,,386.9235138019999,None,387.4236028129999,None,388.423657974,None,right,0.6034421419999489,388.92374808,None,None,None,None,1.0,3.052631578947368,300,-300,600,left,right,,dave,001,2021_Jul_22_1223,compare_lines,2021.1.4,60.02907928654828,
vertical,0,0,0,0,31,2,126,1,,,,,,,,,,,,,389.5404481989999,None,390.04037282800005,None,391.04051991000006,None,right,0.7873017580000123,391.5404677199999,None,None,None,None,3.2105263157894735,3.3684210526315788,300,-300,600,left,right,,dave,001,2021_Jul_22_1223,compare_lines,2021.1.4,60.02907928654828,
diagonal2,0,0,0,0,31,3,127,3,,,,,,,,,,,,,392.3409253929999,None,392.840579489,None,393.8406837309999,None,right,0.6208086130000083,394.34079952,None,None,None,None,2.5789473684210527,3.8421052631578947,300,-300,600,left,right,,dave,001,2021_Jul_22_1223,compare_lines,2021.1.4,60.02907928654828,
vertical,0,0,0,0,32,0,128,1,,,,,,,,,,,,,394.97415540099996,None,395.4742314319999,None,396.47420599399993,None,down,0.7535261670000182,396.97427398699983,None,None,None,None,1.9473684210526314,2.7368421052631575,300,-300,600,left,right,,dave,001,2021_Jul_22_1223,compare_lines,2021.1.4,60.02907928654828,
diagonal2,0,0,0,0,32,1,129,3,,,,,,,,,,,,,397.741071143,None,398.241143362,None,399.241092555,None,left,0.7208002160000433,399.741186494,None,None,None,None,3.2105263157894735,2.5789473684210527,300,-300,600,right,left,,dave,001,2021_Jul_22_1223,compare_lines,2021.1.4,60.02907928654828,
horizontal,0,0,0,0,32,2,130,0,,,,,,,,,,,,,400.4745708569999,None,400.97450468099987,None,401.97462188099985,None,down,0.9533035859999472,402.47467447099984,None,None,None,None,2.894736842105263,2.894736842105263,300,-300,600,right,left,,dave,001,2021_Jul_22_1223,compare_lines,2021.1.4,60.02907928654828,
diagonal1,0,0,0,0,32,3,131,2,,,,,,,,,,,,,403.441413108,None,403.94151014299996,None,404.94157438699995,None,left,0.5537186799999745,405.4415038509999,None,None,None,None,3.8421052631578947,2.263157894736842,300,-300,600,right,left,,dave,001,2021_Jul_22_1223,compare_lines,2021.1.4,60.02907928654828,
diagonal2,0,0,0,0,33,0,132,3,,,,,,,,,,,,,406.00823054600005,None,406.508307351,None,407.50818917499987,None,right,0.6375291980000384,408.0084797899999,None,None,None,None,1.3157894736842106,2.4210526315789473,300,-300,600,left,right,,dave,001,2021_Jul_22_1223,compare_lines,2021.1.4,60.02907928654828,
vertical,0,0,0,0,33,1,133,1,,,,,,,,,,,,,408.6586053169999,None,409.15852856799984,None,410.1586933629999,None,down,0.7041985109999587,410.6587264059999,None,None,None,None,2.894736842105263,1.3157894736842106,300,-300,600,left,right,,dave,001,2021_Jul_22_1223,compare_lines,2021.1.4,60.02907928654828,
diagonal1,0,0,0,0,33,2,134,2,,,,,,,,,,,,,411.3753519449999,None,411.875488055,None,412.87547318299994,None,right,0.7875989359999949,413.37558227,None,None,None,None,1.9473684210526314,4.0,300,-300,600,right,left,,dave,001,2021_Jul_22_1223,compare_lines,2021.1.4,60.02907928654828,
horizontal,0,0,0,0,33,3,135,0,,,,,,,,,,,,,414.175674931,None,414.675633652,None,415.67569160699986,None,down,0.6375335970001288,416.17581796399986,None,None,None,None,1.631578947368421,1.1578947368421053,300,-300,600,left,right,,dave,001,2021_Jul_22_1223,compare_lines,2021.1.4,60.02907928654828,
diagonal1,0,0,0,0,34,0,136,2,,,,,,,,,,,,,416.82590474699987,None,417.325796612,None,418.32578283299995,None,right,0.5869798459998492,418.82592033799983,None,None,None,None,3.3684210526315788,2.5789473684210527,300,-300,600,left,right,,dave,001,2021_Jul_22_1223,compare_lines,2021.1.4,60.02907928654828,
horizontal,0,0,0,0,34,1,137,0,,,,,,,,,,,,,419.4259851049999,None,419.92604046999986,None,420.92616493399987,None,down,0.6033177070000875,421.4261164919999,None,None,None,None,2.1052631578947367,2.1052631578947367,300,-300,600,left,right,,dave,001,2021_Jul_22_1223,compare_lines,2021.1.4,60.02907928654828,
diagonal2,0,0,0,0,34,2,138,3,,,,,,,,,,,,,422.0428818559999,None,422.54297012999996,None,423.5429977189999,None,left,0.9835281840000789,424.04311436700004,None,None,None,None,1.631578947368421,1.631578947368421,300,-300,600,right,left,,dave,001,2021_Jul_22_1223,compare_lines,2021.1.4,60.02907928654828,
vertical,0,0,0,0,34,3,139,1,,,,,,,,,,,,,425.042980424,None,425.5431290639999,None,426.5431800659999,None,down,0.7877282100000684,427.04332541400004,None,None,None,None,2.5789473684210527,2.5789473684210527,300,-300,600,left,right,,dave,001,2021_Jul_22_1223,compare_lines,2021.1.4,60.02907928654828,
horizontal,0,0,0,0,35,0,140,0,,,,,,,,,,,,,427.843452499,None,428.3514232509999,None,429.36015911000004,None,right,0.6367078470000251,429.86012963400003,None,None,None,None,2.4210526315789473,2.4210526315789473,300,-300,600,left,right,,dave,001,2021_Jul_22_1223,compare_lines,2021.1.4,60.02907928654828,
diagonal2,0,0,0,0,35,1,141,3,,,,,,,,,,,,,430.5102774699999,None,431.01023403399995,None,432.0103473229999,None,left,0.6868841350001276,432.5103614269999,None,None,None,None,3.052631578947368,3.052631578947368,300,-300,600,right,left,,dave,001,2021_Jul_22_1223,compare_lines,2021.1.4,60.02907928654828,
diagonal1,0,0,0,0,35,2,142,2,,,,,,,,,,,,,433.21028625400004,None,433.710440652,None,434.71050770099987,None,down,0.7212115889999495,435.21054066299985,None,None,None,None,2.1052631578947367,2.4210526315789473,300,-300,600,right,left,,dave,001,2021_Jul_22_1223,compare_lines,2021.1.4,60.02907928654828,
vertical,0,0,0,0,35,3,143,1,,,,,,,,,,,,,435.9438577149999,None,436.44395413300003,None,437.4440520169999,None,down,0.6206391600001098,437.9440780059999,None,None,None,None,2.5789473684210527,1.9473684210526314,300,-300,600,right,left,,dave,001,2021_Jul_22_1223,compare_lines,2021.1.4,60.02907928654828,
vertical,0,0,0,0,36,0,144,1,,,,,,,,,,,,,438.57747099799985,None,439.077257123,None,440.07754661399986,None,down,0.6374248210001952,440.57770666600004,None,None,None,None,2.4210526315789473,1.7894736842105263,300,-300,600,left,right,,dave,001,2021_Jul_22_1223,compare_lines,2021.1.4,60.02907928654828,
horizontal,0,0,0,0,36,1,145,0,,,,,,,,,,,,,441.227664883,None,441.72769350199997,None,442.7278928179999,None,down,1.1339061789999505,443.2277889919999,None,None,None,None,2.5789473684210527,1.4736842105263157,300,-300,600,left,right,,dave,001,2021_Jul_22_1223,compare_lines,2021.1.4,60.02907928654828,
diagonal2,0,0,0,0,36,2,146,3,,,,,,,,,,,,,444.37783561699985,None,444.87800371599997,None,445.878080815,None,left,0.6539518520000911,446.3780631679999,None,None,None,None,1.7894736842105263,1.3157894736842106,300,-300,600,right,left,,dave,001,2021_Jul_22_1223,compare_lines,2021.1.4,60.02907928654828,
diagonal1,0,0,0,0,36,3,147,2,,,,,,,,,,,,,447.04480172700005,None,447.54487092599993,None,448.5445670469999,None,left,0.6212764199999583,449.04496102999997,None,None,None,None,1.0,3.526315789473684,300,-300,600,right,left,,dave,001,2021_Jul_22_1223,compare_lines,2021.1.4,60.02907928654828,
horizontal,0,0,0,0,37,0,148,0,,,,,,,,,,,,,449.67817744700005,None,450.1783758009999,None,451.178410494,None,left,0.5368696230000296,451.67855206399986,None,None,None,None,1.4736842105263157,1.0,300,-300,600,right,left,,dave,001,2021_Jul_22_1223,compare_lines,2021.1.4,60.02907928654828,
diagonal1,0,0,0,0,37,1,149,2,,,,,,,,,,,,,452.2284929939999,None,452.728573975,None,453.728598744,None,left,0.47018343500008086,454.22859712900004,None,None,None,None,3.6842105263157894,1.4736842105263157,300,-300,600,right,left,,dave,001,2021_Jul_22_1223,compare_lines,2021.1.4,60.02907928654828,
diagonal2,0,0,0,0,37,2,150,3,,,,,,,,,,,,,454.712036099,None,455.212010601,None,456.211961254,None,right,0.8716594519999035,456.7120254219999,None,None,None,None,2.263157894736842,2.263157894736842,300,-300,600,left,right,,dave,001,2021_Jul_22_1223,compare_lines,2021.1.4,60.02907928654828,
vertical,0,0,0,0,37,3,151,1,,,,,,,,,,,,,457.595301543,None,458.09509363200004,None,459.09532491899995,None,down,1.350376603000086,459.59539325599985,None,None,None,None,4.0,3.526315789473684,300,-300,600,left,right,,dave,001,2021_Jul_22_1223,compare_lines,2021.1.4,60.02907928654828,
vertical,0,0,0,0,38,0,152,1,,,,,,,,,,,,,460.96189955599993,None,461.4620194249999,None,462.46203331699985,None,down,0.7023506960001669,462.962015264,None,None,None,None,1.9473684210526314,1.9473684210526314,300,-300,600,left,right,,dave,001,2021_Jul_22_1223,compare_lines,2021.1.4,60.02907928654828,
horizontal,0,0,0,0,38,1,153,0,,,,,,,,,,,,,463.67870082399986,None,464.17870654700005,None,465.17893500900004,None,left,0.6877341389999856,465.678768537,None,None,None,None,1.4736842105263157,1.631578947368421,300,-300,600,right,left,,dave,001,2021_Jul_22_1223,compare_lines,2021.1.4,60.02907928654828,
diagonal1,0,0,0,0,38,2,154,2,,,,,,,,,,,,,466.3787906949999,None,466.87891836799986,None,467.878877526,None,right,1.683773475999942,468.37882536200004,None,None,None,None,1.9473684210526314,2.1052631578947367,300,-300,600,left,right,,dave,001,2021_Jul_22_1223,compare_lines,2021.1.4,60.02907928654828,
diagonal2,0,0,0,0,38,3,155,3,,,,,,,,,,,,,470.07885860299984,None,470.5789452849999,None,471.57886499999995,None,down,0.8707286610001574,472.07891534099986,None,None,None,None,1.3157894736842106,1.0,300,-300,600,right,left,,dave,001,2021_Jul_22_1223,compare_lines,2021.1.4,60.02907928654828,
horizontal,0,0,0,0,39,0,156,0,,,,,,,,,,,,,472.9621983069999,None,473.4622513689999,None,474.46236175700005,None,left,0.5547278040000947,474.96221812299996,None,None,None,None,3.3684210526315788,1.9473684210526314,300,-300,600,right,left,,dave,001,2021_Jul_22_1223,compare_lines,2021.1.4,60.02907928654828,
diagonal2,0,0,0,0,39,1,157,3,,,,,,,,,,,,,475.5289016659999,None,476.02895982899986,None,477.02893648500003,None,down,0.7704476709998289,477.52895092899985,None,None,None,None,3.6842105263157894,4.0,300,-300,600,left,right,,dave,001,2021_Jul_22_1223,compare_lines,2021.1.4,60.02907928654828,
vertical,0,0,0,0,39,2,158,1,,,,,,,,,,,,,478.31238848299995,None,478.81238624599996,None,479.8125014919999,None,left,0.770000514000003,480.3125791279999,None,None,None,None,2.5789473684210527,1.1578947368421053,300,-300,600,left,right,,dave,001,2021_Jul_22_1223,compare_lines,2021.1.4,60.02907928654828,
diagonal1,0,0,0,0,39,3,159,2,,,,,,,,,,,,,481.09580934099995,None,481.595766808,None,482.59575177099987,None,right,0.9032453820000228,483.095510785,None,None,None,None,2.263157894736842,2.894736842105263,300,-300,600,right,left,,dave,001,2021_Jul_22_1223,compare_lines,2021.1.4,60.02907928654828,
diagonal1,0,0,0,0,40,0,160,2,,,,,,,,,,,,,484.0124560219999,None,484.51253023899994,None,485.5124473369999,None,left,1.6172607579999294,486.01236633300005,None,None,None,None,3.526315789473684,3.526315789473684,300,-300,600,right,left,,dave,001,2021_Jul_22_1223,compare_lines,2021.1.4,60.02907928654828,
diagonal2,0,0,0,0,40,1,161,3,,,,,,,,,,,,,487.6458606409999,None,488.14579334199993,None,489.14590891499984,None,left,0.6216353089998847,489.6458828069999,None,None,None,None,2.5789473684210527,2.5789473684210527,300,-300,600,right,left,,dave,001,2021_Jul_22_1223,compare_lines,2021.1.4,60.02907928654828,
horizontal,0,0,0,0,40,2,162,0,,,,,,,,,,,,,490.27929900799995,None,490.7793313499999,None,491.7792857459999,None,down,0.85333937900009,492.27942562199996,None,None,None,None,3.526315789473684,3.526315789473684,300,-300,600,left,right,,dave,001,2021_Jul_22_1223,compare_lines,2021.1.4,60.02907928654828,
vertical,0,0,0,0,40,3,163,1,,,,,,,,,,,,,493.14613553999993,None,493.646002703,None,494.6459378899999,None,left,0.8540809680000621,495.146060434,None,None,None,None,3.526315789473684,3.526315789473684,300,-300,600,left,right,,dave,001,2021_Jul_22_1223,compare_lines,2021.1.4,60.02907928654828,
vertical,0,0,0,0,41,0,164,1,,,,,,,,,,,,,496.0127660989999,None,496.512716491,None,497.512855253,None,right,0.5373283040000842,498.01286529699996,None,None,None,None,1.1578947368421053,3.052631578947368,300,-300,600,left,right,,dave,001,2021_Jul_22_1223,compare_lines,2021.1.4,60.02907928654828,
diagonal2,0,0,0,0,41,1,165,3,,,,,,,,,,,,,498.562913084,None,499.06293608099986,None,500.062945246,None,down,0.9708871929999532,500.5629436219999,None,None,None,None,1.1578947368421053,1.0,300,-300,600,right,left,,dave,001,2021_Jul_22_1223,compare_lines,2021.1.4,60.02907928654828,
diagonal1,0,0,0,0,41,2,166,2,,,,,,,,,,,,,501.5462875389999,None,502.0463513269999,None,503.04632699800004,None,down,0.7861045410002134,503.54614304999996,None,None,None,None,1.3157894736842106,1.4736842105263157,300,-300,600,right,left,,dave,001,2021_Jul_22_1223,compare_lines,2021.1.4,60.02907928654828,
horizontal,0,0,0,0,41,3,167,0,,,,,,,,,,,,,504.34647132299983,None,504.84622325199985,None,505.84634123,None,left,0.6542680469999596,506.3463400559999,None,None,None,None,3.8421052631578947,3.8421052631578947,300,-300,600,right,left,,dave,001,2021_Jul_22_1223,compare_lines,2021.1.4,60.02907928654828,
diagonal2,0,0,0,0,42,0,168,3,,,,,,,,,,,,,507.01309420200005,None,507.51312519,None,508.51313333999997,None,left,0.6003268079998634,509.01766777499984,None,None,None,None,3.8421052631578947,1.1578947368421053,300,-300,600,right,left,,dave,001,2021_Jul_22_1223,compare_lines,2021.1.4,60.02907928654828,
vertical,0,0,0,0,42,1,169,1,,,,,,,,,,,,,509.62980154499996,None,510.1299017869999,None,511.1298819419999,None,down,0.7874674390000109,511.6307871429999,None,None,None,None,1.0,1.0,300,-300,600,right,left,,dave,001,2021_Jul_22_1223,compare_lines,2021.1.4,60.02907928654828,
diagonal1,0,0,0,0,42,2,170,2,,,,,,,,,,,,,512.429915184,None,512.9299033899999,None,513.9300738699999,None,left,1.050410936000162,514.4300214929999,None,None,None,None,3.052631578947368,3.526315789473684,300,-300,600,right,left,,dave,001,2021_Jul_22_1223,compare_lines,2021.1.4,60.02907928654828,
horizontal,0,0,0,0,42,3,171,0,,,,,,,,,,,,,515.496656562,None,515.9966382569999,None,516.996699455,None,down,0.8873593440000604,517.496739729,None,None,None,None,1.3157894736842106,1.3157894736842106,300,-300,600,right,left,,dave,001,2021_Jul_22_1223,compare_lines,2021.1.4,60.02907928654828,
diagonal2,0,0,0,0,43,0,172,3,,,,,,,,,,,,,518.3968253149999,None,518.8968307559999,None,519.8968171879999,None,right,0.9528796770000554,520.396911887,None,None,None,None,1.1578947368421053,1.9473684210526314,300,-300,600,right,left,,dave,001,2021_Jul_22_1223,compare_lines,2021.1.4,60.02907928654828,
diagonal1,0,0,0,0,43,1,173,2,,,,,,,,,,,,,521.3634867419998,None,521.863598683,None,522.863628871,None,right,0.5373775760001536,523.3636402879999,None,None,None,None,1.9473684210526314,3.6842105263157894,300,-300,600,left,right,,dave,001,2021_Jul_22_1223,compare_lines,2021.1.4,60.02907928654828,
vertical,0,0,0,0,43,2,174,1,,,,,,,,,,,,,523.913854016,None,524.413748363,None,525.413719975,None,right,0.4883170829998562,525.913743115,None,None,None,None,1.3157894736842106,3.526315789473684,300,-300,600,right,left,,dave,001,2021_Jul_22_1223,compare_lines,2021.1.4,60.02907928654828,
horizontal,0,0,0,0,43,3,175,0,,,,,,,,,,,,,526.4137243779999,None,526.91386033,None,527.913864393,None,left,0.47171091399991383,528.413872735,None,None,None,None,4.0,1.1578947368421053,300,-300,600,right,left,,dave,001,2021_Jul_22_1223,compare_lines,2021.1.4,60.02907928654828,
diagonal2,0,0,0,0,44,0,176,3,,,,,,,,,,,,,528.89728838,None,529.3971548259999,None,530.3971698329999,None,right,0.45395526800007246,530.8973410409999,None,None,None,None,1.4736842105263157,3.8421052631578947,300,-300,600,right,left,,dave,001,2021_Jul_22_1223,compare_lines,2021.1.4,60.02907928654828,
horizontal,0,0,0,0,44,1,177,0,,,,,,,,,,,,,531.3639780809999,None,531.8638760849999,None,532.8639703699998,None,left,0.636810104999995,533.3640199609999,None,None,None,None,1.7894736842105263,2.894736842105263,300,-300,600,right,left,,dave,001,2021_Jul_22_1223,compare_lines,2021.1.4,60.02907928654828,
vertical,0,0,0,0,44,2,178,1,,,,,,,,,,,,,534.0141243349999,None,534.514204826,None,535.5141399059999,None,left,0.6539057049999428,536.0141588500001,None,None,None,None,3.8421052631578947,3.052631578947368,300,-300,600,right,left,,dave,001,2021_Jul_22_1223,compare_lines,2021.1.4,60.02907928654828,
diagonal1,0,0,0,0,44,3,179,2,,,,,,,,,,,,,536.680839608,None,537.1808781979998,None,538.180880395,None,down,0.8549306669999623,538.6808702189999,None,None,None,None,1.3157894736842106,1.3157894736842106,300,-300,600,right,left,,dave,001,2021_Jul_22_1223,compare_lines,2021.1.4,60.02907928654828,
horizontal,0,0,0,0,45,0,180,0,,,,,,,,,,,,,539.5475410869999,None,540.0476840479998,None,541.047692999,None,left,0.6047967720000997,541.5477346109999,None,None,None,None,3.8421052631578947,3.8421052631578947,300,-300,600,right,left,,dave,001,2021_Jul_22_1223,compare_lines,2021.1.4,60.02907928654828,
vertical,0,0,0,0,45,1,181,1,,,,,,,,,,,,,542.164426759,None,542.664507703,None,543.664261807,None,right,0.8875305439999011,544.164431807,None,None,None,None,2.4210526315789473,1.631578947368421,300,-300,600,left,right,,dave,001,2021_Jul_22_1223,compare_lines,2021.1.4,60.02907928654828,
diagonal1,0,0,0,0,45,2,182,2,,,,,,,,,,,,,545.064546265,None,545.564636653,None,546.5645110399998,None,left,0.6876904519999698,547.064670146,None,None,None,None,2.4210526315789473,1.9473684210526314,300,-300,600,right,left,,dave,001,2021_Jul_22_1223,compare_lines,2021.1.4,60.02907928654828,
diagonal2,0,0,0,0,45,3,183,3,,,,,,,,,,,,,547.764527823,None,548.26466278,None,549.2646865029999,None,right,0.9837554110001747,549.7646911049999,None,None,None,None,2.7368421052631575,3.8421052631578947,300,-300,600,right,left,,dave,001,2021_Jul_22_1223,compare_lines,2021.1.4,60.02907928654828,
vertical,0,0,0,0,46,0,184,1,,,,,,,,,,,,,550.764698231,None,551.2648548319999,None,552.264751101,None,left,0.7541043690000606,552.764917126,None,None,None,None,2.7368421052631575,2.7368421052631575,300,-300,600,right,left,,dave,001,2021_Jul_22_1223,compare_lines,2021.1.4,60.02907928654828,
diagonal1,0,0,0,0,46,1,185,2,,,,,,,,,,,,,553.531622106,None,554.0315700469998,None,555.0315058889998,None,right,0.6029391810000106,555.5316179909998,None,None,None,None,1.631578947368421,2.263157894736842,300,-300,600,left,right,,dave,001,2021_Jul_22_1223,compare_lines,2021.1.4,60.02907928654828,
horizontal,0,0,0,0,46,2,186,0,,,,,,,,,,,,,556.148303679,None,556.6482411909999,None,557.648406278,None,right,0.6036617519998799,558.148453049,None,None,None,None,3.6842105263157894,3.6842105263157894,300,-300,600,left,right,,dave,001,2021_Jul_22_1223,compare_lines,2021.1.4,60.02907928654828,
diagonal2,0,0,0,0,46,3,187,3,,,,,,,,,,,,,558.765191381,None,559.265152534,None,560.26515128,None,down,1.100475630000119,560.765204817,None,None,None,None,1.7894736842105263,1.7894736842105263,300,-300,600,right,left,,dave,001,2021_Jul_22_1223,compare_lines,2021.1.4,60.02907928654828,
horizontal,0,0,0,0,47,0,188,0,,,,,,,,,,,,,561.881954938,None,562.381934645,None,563.38205864,None,left,0.6871444099999735,563.88196378,None,None,None,None,2.4210526315789473,2.5789473684210527,300,-300,600,right,left,,dave,001,2021_Jul_22_1223,compare_lines,2021.1.4,60.02907928654828,
diagonal1,0,0,0,0,47,1,189,2,,,,,,,,,,,,,564.582134473,None,565.08207259,None,566.0820864759999,None,left,0.8532479259999945,566.5821560039999,None,None,None,None,2.4210526315789473,2.4210526315789473,300,-300,600,right,left,,dave,001,2021_Jul_22_1223,compare_lines,2021.1.4,60.02907928654828,
vertical,0,0,0,0,47,2,190,1,,,,,,,,,,,,,567.448709857,None,567.9488441819999,None,568.9488745169999,None,left,0.5374764409998534,569.4489626079999,None,None,None,None,3.2105263157894735,2.1052631578947367,300,-300,600,right,left,,dave,001,2021_Jul_22_1223,compare_lines,2021.1.4,60.02907928654828,
diagonal2,0,0,0,0,47,3,191,3,,,,,,,,,,,,,569.9990128669999,None,570.499034532,None,571.4989731359999,None,right,0.7035561459999826,571.9990957789998,None,None,None,None,2.7368421052631575,2.7368421052631575,300,-300,600,left,right,,dave,001,2021_Jul_22_1223,compare_lines,2021.1.4,60.02907928654828,
vertical,0,0,0,0,48,0,192,1,,,,,,,,,,,,,572.715760091,None,573.215764646,None,574.2158269899999,None,down,0.6378060730000925,574.7158695629998,None,None,None,None,2.263157894736842,2.263157894736842,300,-300,600,left,right,,dave,001,2021_Jul_22_1223,compare_lines,2021.1.4,60.02907928654828,
horizontal,0,0,0,0,48,1,193,0,,,,,,,,,,,,,575.3658681009999,None,575.8658626689999,None,576.865740834,None,left,0.5713924070000758,577.366053276,None,None,None,None,3.3684210526315788,3.052631578947368,300,-300,600,right,left,,dave,001,2021_Jul_22_1223,compare_lines,2021.1.4,60.02907928654828,
diagonal2,0,0,0,0,48,2,194,3,,,,,,,,,,,,,577.9494265429998,None,578.4491739739999,None,579.449515149,None,left,0.7534589150000102,579.9494516949999,None,None,None,None,3.3684210526315788,2.7368421052631575,300,-300,600,left,right,,dave,001,2021_Jul_22_1223,compare_lines,2021.1.4,60.02907928654828,
diagonal1,0,0,0,0,48,3,195,2,,,,,,,,,,,,,580.7161916969999,None,581.2161545919998,None,582.2162071559999,None,left,0.7538122119999571,582.716316173,None,None,None,None,3.526315789473684,2.5789473684210527,300,-300,600,left,right,,dave,001,2021_Jul_22_1223,compare_lines,2021.1.4,60.02907928654828,
horizontal,0,0,0,0,49,0,196,0,,,,,,,,,,,,,583.483017816,None,583.9829905619999,None,584.9829793689998,None,left,0.8870549889998074,585.4830536069999,None,None,None,None,2.4210526315789473,2.4210526315789473,300,-300,600,right,left,,dave,001,2021_Jul_22_1223,compare_lines,2021.1.4,60.02907928654828,
vertical,0,0,0,0,49,1,197,1,,,,,,,,,,,,,586.3831794819998,None,586.8830340749998,None,587.8831323319998,None,down,1.3004161280000517,588.3831265669999,None,None,None,None,3.8421052631578947,3.8421052631578947,300,-300,600,right,left,,dave,001,2021_Jul_22_1223,compare_lines,2021.1.4,60.02907928654828,
diagonal2,0,0,0,0,49,2,198,3,,,,,,,,,,,,,589.699885231,None,590.1999485199999,None,591.200080845,None,left,0.5715572789999896,591.699996691,None,None,None,None,3.6842105263157894,3.6842105263157894,300,-300,600,right,left,,dave,001,2021_Jul_22_1223,compare_lines,2021.1.4,60.02907928654828,
diagonal1,0,0,0,0,49,3,199,2,,,,,,,,,,,,,592.2839232659999,None,592.7834460259999,None,593.7835108689999,None,right,1.0004224879999128,594.2835088639999,None,None,None,None,2.4210526315789473,3.052631578947368,300,-300,600,right,left,,dave,001,2021_Jul_22_1223,compare_lines,2021.1.4,60.02907928654828,
diagonal1,0,0,0,0,50,0,200,2,,,,,,,,,,,,,595.3001708079998,None,595.800255743,None,596.800350969,None,down,1.0170567489999485,597.300336542,None,None,None,None,2.263157894736842,3.6842105263157894,300,-300,600,right,left,,dave,001,2021_Jul_22_1223,compare_lines,2021.1.4,60.02907928654828,
vertical,0,0,0,0,50,1,201,1,,,,,,,,,,,,,598.3335869969999,None,598.8337632319999,None,599.833642763,None,left,0.5870262009998441,600.3339053339998,None,None,None,None,3.8421052631578947,2.894736842105263,300,-300,600,left,right,,dave,001,2021_Jul_22_1223,compare_lines,2021.1.4,60.02907928654828,
diagonal2,0,0,0,0,50,2,202,3,,,,,,,,,,,,,600.933859819,None,601.4337963989999,None,602.43388516,None,right,0.5385034749999704,602.9337910069999,None,None,None,None,2.894736842105263,2.894736842105263,300,-300,600,left,right,,dave,001,2021_Jul_22_1223,compare_lines,2021.1.4,60.02907928654828,
horizontal,0,0,0,0,50,3,203,0,,,,,,,,,,,,,603.483957598,None,603.9839880909999,None,604.984068067,None,left,0.7691640670000197,605.484091665,None,None,None,None,3.8421052631578947,1.3157894736842106,300,-300,600,left,right,,dave,001,2021_Jul_22_1223,compare_lines,2021.1.4,60.02907928654828,
diagonal2,0,0,0,0,51,0,204,3,,,,,,,,,,,,,606.2675826479999,None,606.767698766,None,607.76764447,None,left,1.167089666000038,608.267622891,None,None,None,None,2.263157894736842,1.7894736842105263,300,-300,600,right,left,,dave,001,2021_Jul_22_1223,compare_lines,2021.1.4,60.02907928654828,
horizontal,0,0,0,0,51,1,205,0,,,,,,,,,,,,,609.450957947,None,609.951006904,None,610.951140682,None,down,0.870143108999855,611.4511104799999,None,None,None,None,1.631578947368421,1.631578947368421,300,-300,600,left,right,,dave,001,2021_Jul_22_1223,compare_lines,2021.1.4,60.02907928654828,
diagonal1,0,0,0,0,51,2,206,2,,,,,,,,,,,,,612.334505113,None,612.83443825,None,613.8345764599999,None,right,0.7213916309999604,614.334668446,None,None,None,None,2.7368421052631575,2.5789473684210527,300,-300,600,left,right,,dave,001,2021_Jul_22_1223,compare_lines,2021.1.4,60.02907928654828,
vertical,0,0,0,0,51,3,207,1,,,,,,,,,,,,,615.0679731549999,None,615.567929753,None,616.5677657209999,None,down,0.9376834570000483,617.068052244,None,None,None,None,1.1578947368421053,2.263157894736842,300,-300,600,left,right,,dave,001,2021_Jul_22_1223,compare_lines,2021.1.4,60.02907928654828,
diagonal2,0,0,0,0,52,0,208,3,,,,,,,,,,,,,618.0181359349999,None,618.518185641,None,619.5182444539998,None,left,0.5710509370001091,620.018195804,None,None,None,None,1.9473684210526314,1.9473684210526314,300,-300,600,right,left,,dave,001,2021_Jul_22_1223,compare_lines,2021.1.4,60.02907928654828,
horizontal,0,0,0,0,52,1,209,0,,,,,,,,,,,,,620.601519564,None,621.101580501,None,622.1016214009999,None,left,0.820812136000086,622.601675295,None,None,None,None,3.526315789473684,1.1578947368421053,300,-300,600,left,right,,dave,001,2021_Jul_22_1223,compare_lines,2021.1.4,60.02907928654828,
vertical,0,0,0,0,52,2,210,1,,,,,,,,,,,,,623.4350599739998,None,623.9350576929999,None,624.943058911,None,right,0.6033713199999511,625.451869346,None,None,None,None,2.1052631578947367,4.0,300,-300,600,left,right,,dave,001,2021_Jul_22_1223,compare_lines,2021.1.4,60.02907928654828,
diagonal1,0,0,0,0,52,3,211,2,,,,,,,,,,,,,626.0685497309998,None,626.568469781,None,627.568666829,None,down,0.8032348360000015,628.068597402,None,None,None,None,3.526315789473684,2.894736842105263,300,-300,600,right,left,,dave,001,2021_Jul_22_1223,compare_lines,2021.1.4,60.02907928654828,
horizontal,0,0,0,0,53,0,212,0,,,,,,,,,,,,,628.885373543,None,629.385421297,None,630.38541156,None,right,0.6540161269999771,630.885567882,None,None,None,None,2.894736842105263,2.4210526315789473,300,-300,600,left,right,,dave,001,2021_Jul_22_1223,compare_lines,2021.1.4,60.02907928654828,
vertical,0,0,0,0,53,1,213,1,,,,,,,,,,,,,631.5522291339998,None,632.052304881,None,633.052247419,None,down,0.9035915489998843,633.552275361,None,None,None,None,2.1052631578947367,2.1052631578947367,300,-300,600,right,left,,dave,001,2021_Jul_22_1223,compare_lines,2021.1.4,60.02907928654828,
diagonal2,0,0,0,0,53,2,214,3,,,,,,,,,,,,,634.4690601699999,None,634.969079598,None,635.9691770019999,None,right,0.6036627999999382,636.4691917600001,None,None,None,None,2.894736842105263,2.894736842105263,300,-300,600,left,right,,dave,001,2021_Jul_22_1223,compare_lines,2021.1.4,60.02907928654828,
diagonal1,0,0,0,0,53,3,215,2,,,,,,,,,,,,,637.0859484509999,None,637.5859976729998,None,638.5858441299999,None,down,0.7879967110000052,639.0858926149999,None,None,None,None,2.263157894736842,2.1052631578947367,300,-300,600,left,right,,dave,001,2021_Jul_22_1223,compare_lines,2021.1.4,60.02907928654828,
vertical,0,0,0,0,54,0,216,1,,,,,,,,,,,,,639.885931214,None,640.385857455,None,641.386029518,None,down,0.6701915500000268,641.885961317,None,None,None,None,2.894736842105263,2.5789473684210527,300,-300,600,right,left,,dave,001,2021_Jul_22_1223,compare_lines,2021.1.4,60.02907928654828,
horizontal,0,0,0,0,54,1,217,0,,,,,,,,,,,,,642.569480118,None,643.069468872,None,644.069531807,None,down,0.9837424499999088,644.5695185529999,None,None,None,None,3.526315789473684,3.8421052631578947,300,-300,600,left,right,,dave,001,2021_Jul_22_1223,compare_lines,2021.1.4,60.02907928654828,
diagonal1,0,0,0,0,54,2,218,2,,,,,,,,,,,,,645.5695990719998,None,646.0697101859998,None,647.0697807409999,None,down,1.4337650439999834,647.5698607699999,None,None,None,None,3.6842105263157894,3.6842105263157894,300,-300,600,left,right,,dave,001,2021_Jul_22_1223,compare_lines,2021.1.4,60.02907928654828,
diagonal2,0,0,0,0,54,3,219,3,,,,,,,,,,,,,649.019898415,None,649.5199155539999,None,650.5199314279998,None,left,0.5542066359998898,651.0199301339999,None,None,None,None,3.6842105263157894,3.052631578947368,300,-300,600,right,left,,dave,001,2021_Jul_22_1223,compare_lines,2021.1.4,60.02907928654828,
horizontal,0,0,0,0,55,0,220,0,,,,,,,,,,,,,651.586597345,None,652.0868115649998,None,653.0867450859998,None,down,0.8708379310000964,653.586781144,None,None,None,None,2.1052631578947367,1.4736842105263157,300,-300,600,left,right,,dave,001,2021_Jul_22_1223,compare_lines,2021.1.4,60.02907928654828,
vertical,0,0,0,0,55,1,221,1,,,,,,,,,,,,,654.47007014,None,654.97019967,None,655.97010566,None,down,0.636938470999894,656.4704048169999,None,None,None,None,1.631578947368421,1.631578947368421,300,-300,600,right,left,,dave,001,2021_Jul_22_1223,compare_lines,2021.1.4,60.02907928654828,
diagonal2,0,0,0,0,55,2,222,3,,,,,,,,,,,,,657.1202982119999,None,657.620396194,None,658.620488022,None,right,0.5381237999999939,659.12027508,None,None,None,None,1.3157894736842106,4.0,300,-300,600,left,right,,dave,001,2021_Jul_22_1223,compare_lines,2021.1.4,60.02907928654828,
diagonal1,0,0,0,0,55,3,223,2,,,,,,,,,,,,,659.6704141519999,None,660.1706303849999,None,661.170591841,None,right,0.8205359629998838,661.670660925,None,None,None,None,3.052631578947368,3.052631578947368,300,-300,600,left,right,,dave,001,2021_Jul_22_1223,compare_lines,2021.1.4,60.02907928654828,
vertical,0,0,0,0,56,0,224,1,,,,,,,,,,,,,662.5039590869999,None,663.003990146,None,664.0041003389999,None,down,1.1505040680001457,664.504111379,None,None,None,None,2.7368421052631575,2.263157894736842,300,-300,600,left,right,,dave,001,2021_Jul_22_1223,compare_lines,2021.1.4,60.02907928654828,
diagonal1,0,0,0,0,56,1,225,2,,,,,,,,,,,,,665.6709148349998,None,666.1708592979999,None,667.170913596,None,right,0.5368053409999902,667.670947111,None,None,None,None,2.4210526315789473,3.6842105263157894,300,-300,600,left,right,,dave,001,2021_Jul_22_1223,compare_lines,2021.1.4,60.02907928654828,
horizontal,0,0,0,0,56,2,226,0,,,,,,,,,,,,,668.221236996,None,668.7209621509999,None,669.720933739,None,down,0.7216748090002056,670.2210780589999,None,None,None,None,1.4736842105263157,1.4736842105263157,300,-300,600,left,right,,dave,001,2021_Jul_22_1223,compare_lines,2021.1.4,60.02907928654828,
diagonal2,0,0,0,0,56,3,227,3,,,,,,,,,,,,,670.9546151489999,None,671.4545001829999,None,672.4546248839999,None,left,0.8049834809999084,672.954667789,None,None,None,None,3.8421052631578947,4.0,300,-300,600,right,left,,dave,001,2021_Jul_22_1223,compare_lines,2021.1.4,60.02907928654828,
diagonal1,0,0,0,0,57,0,228,2,,,,,,,,,,,,,673.7713892889999,None,674.2709316309999,None,675.271405106,None,down,0.7036293219998697,675.7712877689999,None,None,None,None,1.3157894736842106,1.3157894736842106,300,-300,600,left,right,,dave,001,2021_Jul_22_1223,compare_lines,2021.1.4,60.02907928654828,
vertical,0,0,0,0,57,1,229,1,,,,,,,,,,,,,676.4881494259998,None,676.988313927,None,677.9882301149999,None,down,0.8537741019999885,678.488214841,None,None,None,None,1.1578947368421053,1.1578947368421053,300,-300,600,right,left,,dave,001,2021_Jul_22_1223,compare_lines,2021.1.4,60.02907928654828,
horizontal,0,0,0,0,57,2,230,0,,,,,,,,,,,,,679.3550440859999,None,679.8549984199999,None,680.8548065,None,down,0.6871669530000872,681.355146114,None,None,None,None,3.052631578947368,2.5789473684210527,300,-300,600,left,right,,dave,001,2021_Jul_22_1223,compare_lines,2021.1.4,60.02907928654828,
diagonal2,0,0,0,0,57,3,231,3,,,,,,,,,,,,,682.0552167149999,None,682.555177725,None,683.5551177259999,None,left,0.48758367999994334,684.0551633359999,None,None,None,None,3.6842105263157894,1.1578947368421053,300,-300,600,right,left,,dave,001,2021_Jul_22_1223,compare_lines,2021.1.4,60.02907928654828,
vertical,0,0,0,0,58,0,232,1,,,,,,,,,,,,,684.5551861889999,None,685.055398039,None,686.0556154389999,None,down,1.0004205660000025,686.5554175719999,None,None,None,None,3.2105263157894735,3.2105263157894735,300,-300,600,left,right,,dave,001,2021_Jul_22_1223,compare_lines,2021.1.4,60.02907928654828,
horizontal,0,0,0,0,58,1,233,0,,,,,,,,,,,,,687.5720885379999,None,688.072284283,None,689.0724085509999,None,left,0.6708558990001166,689.5723415109999,None,None,None,None,3.3684210526315788,1.631578947368421,300,-300,600,right,left,,dave,001,2021_Jul_22_1223,compare_lines,2021.1.4,60.02907928654828,
diagonal1,0,0,0,0,58,2,234,2,,,,,,,,,,,,,690.255734499,None,690.755743492,None,691.755737165,None,down,2.100776375000123,692.255767415,None,None,None,None,1.631578947368421,1.631578947368421,300,-300,600,right,left,,dave,001,2021_Jul_22_1223,compare_lines,2021.1.4,60.02907928654828,
diagonal2,0,0,0,0,58,3,235,3,,,,,,,,,,,,,694.3725401649999,None,694.8727743249999,None,695.872831489,None,right,0.670357327000147,696.37278494,None,None,None,None,1.4736842105263157,1.4736842105263157,300,-300,600,left,right,,dave,001,2021_Jul_22_1223,compare_lines,2021.1.4,60.02907928654828,
diagonal1,0,0,0,0,59,0,236,2,,,,,,,,,,,,,697.0560064819999,None,697.556119787,None,698.555962271,None,down,0.8880170600000383,699.056110903,None,None,None,None,1.0,1.0,300,-300,600,right,left,,dave,001,2021_Jul_22_1223,compare_lines,2021.1.4,60.02907928654828,
vertical,0,0,0,0,59,1,237,1,,,,,,,,,,,,,699.956128933,None,700.4562667929999,None,701.456266035,None,left,0.754635688999997,701.95628766,None,None,None,None,2.7368421052631575,1.4736842105263157,300,-300,600,right,left,,dave,001,2021_Jul_22_1223,compare_lines,2021.1.4,60.02907928654828,
horizontal,0,0,0,0,59,2,238,0,,,,,,,,,,,,,702.7231188549999,None,703.223191151,None,704.2231584399999,None,right,0.6393786430001,704.723205279,None,None,None,None,3.6842105263157894,2.5789473684210527,300,-300,600,left,right,,dave,001,2021_Jul_22_1223,compare_lines,2021.1.4,60.02907928654828,
diagonal2,0,0,0,0,59,3,239,3,,,,,,,,,,,,,705.3731727299999,None,705.8733556259999,None,706.873447832,None,left,0.6855071539998789,707.3735309009999,None,None,None,None,3.052631578947368,1.3157894736842106,300,-300,600,right,left,,dave,001,2021_Jul_22_1223,compare_lines,2021.1.4,60.02907928654828,
diagonal1,0,0,0,0,60,0,240,2,,,,,,,,,,,,,708.073267772,None,708.5735526389999,None,709.573498321,None,right,0.8869844630000898,710.0733032639998,None,None,None,None,1.3157894736842106,1.9473684210526314,300,-300,600,right,left,,dave,001,2021_Jul_22_1223,compare_lines,2021.1.4,60.02907928654828,
horizontal,0,0,0,0,60,1,241,0,,,,,,,,,,,,,710.9735340289999,None,711.4734624959999,None,712.4738530699999,None,down,0.7871349329998338,712.9736647709999,None,None,None,None,2.5789473684210527,2.5789473684210527,300,-300,600,right,left,,dave,001,2021_Jul_22_1223,compare_lines,2021.1.4,60.02907928654828,
diagonal2,0,0,0,0,60,2,242,3,,,,,,,,,,,,,713.773799762,None,714.2737984999999,None,715.273905451,None,down,0.7869910780000282,715.7739798919999,None,None,None,None,1.1578947368421053,1.1578947368421053,300,-300,600,left,right,,dave,001,2021_Jul_22_1223,compare_lines,2021.1.4,60.02907928654828,
vertical,0,0,0,0,60,3,243,1,,,,,,,,,,,,,716.5738628289998,None,717.074002499,None,718.0742758679999,None,down,0.9029217930001323,718.574175509,None,None,None,None,1.9473684210526314,1.9473684210526314,300,-300,600,right,left,,dave,001,2021_Jul_22_1223,compare_lines,2021.1.4,60.02907928654828,
diagonal2,0,0,0,0,61,0,244,3,,,,,,,,,,,,,719.4908863559999,None,719.9909857799998,None,720.9909427779999,None,left,0.5212828400001399,721.4908546429999,None,None,None,None,3.3684210526315788,1.3157894736842106,300,-300,600,right,left,,dave,001,2021_Jul_22_1223,compare_lines,2021.1.4,60.02907928654828,
horizontal,0,0,0,0,61,1,245,0,,,,,,,,,,,,,722.024345091,None,722.5243563039999,None,723.524329008,None,left,0.6038409519999277,724.0245755819999,None,None,None,None,3.2105263157894735,2.263157894736842,300,-300,600,left,right,,dave,001,2021_Jul_22_1223,compare_lines,2021.1.4,60.02907928654828,
vertical,0,0,0,0,61,2,246,1,,,,,,,,,,,,,724.64103694,None,725.1412835399999,None,726.141321716,None,right,0.7869904399999541,726.6412798060001,None,None,None,None,1.7894736842105263,1.7894736842105263,300,-300,600,left,right,,dave,001,2021_Jul_22_1223,compare_lines,2021.1.4,60.02907928654828,
diagonal1,0,0,0,0,61,3,247,2,,,,,,,,,,,,,727.4413790209999,None,727.941175127,None,728.941298322,None,right,0.5868844310000441,729.4412981329999,None,None,None,None,2.1052631578947367,2.5789473684210527,300,-300,600,left,right,,dave,001,2021_Jul_22_1223,compare_lines,2021.1.4,60.02907928654828,
horizontal,0,0,0,0,62,0,248,0,,,,,,,,,,,,,730.0414880559999,None,730.5415743869999,None,731.541680754,None,right,0.7368763099998432,732.041681855,None,None,None,None,2.1052631578947367,2.1052631578947367,300,-300,600,left,right,,dave,001,2021_Jul_22_1223,compare_lines,2021.1.4,60.02907928654828,
diagonal2,0,0,0,0,62,1,249,3,,,,,,,,,,,,,732.791660179,None,733.2917311599999,None,734.2919156529999,None,down,1.0673025010000856,734.791842305,None,None,None,None,1.4736842105263157,1.4736842105263157,300,-300,600,left,right,,dave,001,2021_Jul_22_1223,compare_lines,2021.1.4,60.02907928654828,
vertical,0,0,0,0,62,2,250,1,,,,,,,,,,,,,735.875220807,None,736.3753294349999,None,737.3752669779999,None,right,0.8368269019999843,737.875297326,None,None,None,None,1.3157894736842106,1.1578947368421053,300,-300,600,left,right,,dave,001,2021_Jul_22_1223,compare_lines,2021.1.4,60.02907928654828,
diagonal1,0,0,0,0,62,3,251,2,,,,,,,,,,,,,738.725340832,None,739.2254836119998,None,740.2255235809998,None,left,0.5375378430001092,740.725454576,None,None,None,None,4.0,1.7894736842105263,300,-300,600,left,right,,dave,001,2021_Jul_22_1223,compare_lines,2021.1.4,60.02907928654828,
horizontal,0,0,0,0,63,0,252,0,,,,,,,,,,,,,741.275486391,None,741.7756163669999,None,742.7757721369999,None,left,0.8533892020000167,743.275713756,None,None,None,None,4.0,4.0,300,-300,600,left,right,,dave,001,2021_Jul_22_1223,compare_lines,2021.1.4,60.02907928654828,
diagonal2,0,0,0,0,63,1,253,3,,,,,,,,,,,,,744.142310129,None,744.6423638169999,None,745.642421754,None,left,0.5717491969999173,746.142497848,None,None,None,None,4.0,1.0,300,-300,600,right,left,,dave,001,2021_Jul_22_1223,compare_lines,2021.1.4,60.02907928654828,
diagonal1,0,0,0,0,63,2,254,2,,,,,,,,,,,,,746.7258587649999,None,747.2260022379999,None,748.22614056,None,right,0.45342293999988215,748.726000588,None,None,None,None,2.1052631578947367,3.3684210526315788,300,-300,600,left,right,,dave,001,2021_Jul_22_1223,compare_lines,2021.1.4,60.02907928654828,
vertical,0,0,0,0,63,3,255,1,,,,,,,,,,,,,749.19278386,None,749.6928448599999,None,750.6927149789999,None,right,0.6038263570001163,751.1927008109999,None,None,None,None,1.631578947368421,3.2105263157894735,300,-300,600,right,left,,dave,001,2021_Jul_22_1223,compare_lines,2021.1.4,60.02907928654828,
diagonal2,0,0,0,0,64,0,256,3,,,,,,,,,,,,,751.80951456,None,752.309559236,None,753.309774238,None,down,0.9201107970000066,753.809700043,None,None,None,None,3.2105263157894735,2.4210526315789473,300,-300,600,left,right,,dave,001,2021_Jul_22_1223,compare_lines,2021.1.4,60.02907928654828,
horizontal,0,0,0,0,64,1,257,0,,,,,,,,,,,,,754.743181956,None,755.2429066079999,None,756.243198593,None,right,0.8544050880000214,756.7432521809999,None,None,None,None,1.0,1.7894736842105263,300,-300,600,right,left,,dave,001,2021_Jul_22_1223,compare_lines,2021.1.4,60.02907928654828,
vertical,0,0,0,0,64,2,258,1,,,,,,,,,,,,,757.609971462,None,758.110131418,None,759.1100143649999,None,down,0.903817608000054,759.6100700509999,None,None,None,None,3.052631578947368,3.052631578947368,300,-300,600,left,right,,dave,001,2021_Jul_22_1223,compare_lines,2021.1.4,60.02907928654828,
diagonal1,0,0,0,0,64,3,259,2,,,,,,,,,,,,,760.5267826519998,None,761.035122413,None,762.043654803,None,down,0.7211762479998924,762.5436477979999,None,None,None,None,3.6842105263157894,3.6842105263157894,300,-300,600,right,left,,dave,001,2021_Jul_22_1223,compare_lines,2021.1.4,60.02907928654828,
vertical,0,0,0,0,65,0,260,1,,,,,,,,,,,,,763.2769799159998,None,763.777130723,None,764.77696836,None,down,0.9712028680000913,765.277122746,None,None,None,None,3.2105263157894735,3.2105263157894735,300,-300,600,left,right,,dave,001,2021_Jul_22_1223,compare_lines,2021.1.4,60.02907928654828,
diagonal2,0,0,0,0,65,1,261,3,,,,,,,,,,,,,766.2605605219999,None,766.760534263,None,767.760617718,None,right,0.9203595300000416,768.2605304799999,None,None,None,None,1.1578947368421053,1.1578947368421053,300,-300,600,right,left,,dave,001,2021_Jul_22_1223,compare_lines,2021.1.4,60.02907928654828,
horizontal,0,0,0,0,65,2,262,0,,,,,,,,,,,,,769.1940117889999,None,769.6940797749999,None,770.6942144969998,None,left,0.8025948219999464,771.194402699,None,None,None,None,1.7894736842105263,1.7894736842105263,300,-300,600,right,left,,dave,001,2021_Jul_22_1223,compare_lines,2021.1.4,60.02907928654828,
diagonal1,0,0,0,0,65,3,263,2,,,,,,,,,,,,,772.011053985,None,772.510944569,None,773.5110184,None,down,1.8172946449999472,774.010932422,None,None,None,None,2.7368421052631575,2.7368421052631575,300,-300,600,left,right,,dave,001,2021_Jul_22_1223,compare_lines,2021.1.4,60.02907928654828,
diagonal2,0,0,0,0,66,0,264,3,,,,,,,,,,,,,775.84451653,None,776.344547401,None,777.344605167,None,left,0.7036835180001617,777.84466374,None,None,None,None,3.6842105263157894,1.7894736842105263,300,-300,600,left,right,,dave,001,2021_Jul_22_1223,compare_lines,2021.1.4,60.02907928654828,
diagonal1,0,0,0,0,66,1,265,2,,,,,,,,,,,,,778.561356702,None,779.0613406749999,None,780.061531977,None,left,0.520768076999957,780.561631816,None,None,None,None,3.8421052631578947,1.631578947368421,300,-300,600,left,right,,dave,001,2021_Jul_22_1223,compare_lines,2021.1.4,60.02907928654828,
vertical,0,0,0,0,66,2,266,1,,,,,,,,,,,,,781.094874809,None,781.59489945,None,782.595019013,None,left,1.3504390600000988,783.095088092,None,None,None,None,3.3684210526315788,3.3684210526315788,300,-300,600,right,left,,dave,001,2021_Jul_22_1223,compare_lines,2021.1.4,60.02907928654828,
horizontal,0,0,0,0,66,3,267,0,,,,,,,,,,,,,784.4616507409999,None,784.961836774,None,785.961784756,None,left,0.538103326000055,786.461661526,None,None,None,None,3.8421052631578947,1.9473684210526314,300,-300,600,left,right,,dave,001,2021_Jul_22_1223,compare_lines,2021.1.4,60.02907928654828,
vertical,0,0,0,0,67,0,268,1,,,,,,,,,,,,,787.0118667239999,None,787.512018615,None,788.5121037819999,None,down,0.7872435649999261,789.012058544,None,None,None,None,2.5789473684210527,2.5789473684210527,300,-300,600,right,left,,dave,001,2021_Jul_22_1223,compare_lines,2021.1.4,60.02907928654828,
horizontal,0,0,0,0,67,1,269,0,,,,,,,,,,,,,789.8120705679999,None,790.312062836,None,791.312343151,None,right,0.5035425139999461,791.812301852,None,None,None,None,2.894736842105263,3.3684210526315788,300,-300,600,right,left,,dave,001,2021_Jul_22_1223,compare_lines,2021.1.4,60.02907928654828,
diagonal1,0,0,0,0,67,2,270,2,,,,,,,,,,,,,792.3289136659998,None,792.828956715,None,793.8290149499999,None,right,0.43865468699982557,794.329051166,None,None,None,None,2.1052631578947367,3.052631578947368,300,-300,600,left,right,,dave,001,2021_Jul_22_1223,compare_lines,2021.1.4,60.02907928654828,
diagonal2,0,0,0,0,67,3,271,3,,,,,,,,,,,,,794.7791513459999,None,795.2792590439999,None,796.2953045289998,None,left,0.588423561999889,796.795966526,None,None,None,None,3.526315789473684,1.7894736842105263,300,-300,600,left,right,,dave,001,2021_Jul_22_1223,compare_lines,2021.1.4,60.02907928654828,
diagonal2,0,0,0,0,68,0,272,3,,,,,,,,,,,,,797.39604001,None,797.8958614359999,None,798.896171204,None,left,0.5378858980000132,799.396156835,None,None,None,None,4.0,2.5789473684210527,300,-300,600,left,right,,dave,001,2021_Jul_22_1223,compare_lines,2021.1.4,60.02907928654828,
diagonal1,0,0,0,0,68,1,273,2,,,,,,,,,,,,,799.946079303,None,800.446129958,None,801.4462558519999,None,down,0.821319492000157,801.9462228779998,None,None,None,None,3.6842105263157894,3.6842105263157894,300,-300,600,right,left,,dave,001,2021_Jul_22_1223,compare_lines,2021.1.4,60.02907928654828,
horizontal,0,0,0,0,68,2,274,0,,,,,,,,,,,,,802.779628689,None,803.279691467,None,804.279631762,None,right,0.5212209369999528,804.77980493,None,None,None,None,3.052631578947368,3.052631578947368,300,-300,600,left,right,,dave,001,2021_Jul_22_1223,compare_lines,2021.1.4,60.02907928654828,
vertical,0,0,0,0,68,3,275,1,,,,,,,,,,,,,805.313112108,None,805.8132809009999,None,806.813304536,None,left,0.42115071400007764,807.313282714,None,None,None,None,3.2105263157894735,1.7894736842105263,300,-300,600,right,left,,dave,001,2021_Jul_22_1223,compare_lines,2021.1.4,60.02907928654828,
diagonal2,0,0,0,0,69,0,276,3,,,,,,,,,,,,,807.7467875309999,None,808.2465810829999,None,809.246918023,None,right,1.4003955089999636,809.7470676339999,None,None,None,None,2.7368421052631575,3.6842105263157894,300,-300,600,right,left,,dave,001,2021_Jul_22_1223,compare_lines,2021.1.4,60.02907928654828,
horizontal,0,0,0,0,69,1,277,0,,,,,,,,,,,,,811.1634751209999,None,811.6636760439999,None,812.663534406,None,down,1.0837306379999063,813.1637557679999,None,None,None,None,1.3157894736842106,2.1052631578947367,300,-300,600,left,right,,dave,001,2021_Jul_22_1223,compare_lines,2021.1.4,60.02907928654828,
diagonal1,0,0,0,0,69,2,278,2,,,,,,,,,,,,,814.2636647079999,None,814.763740357,None,815.763916767,None,left,0.8206707889999052,816.263985,None,None,None,None,3.052631578947368,1.4736842105263157,300,-300,600,left,right,,dave,001,2021_Jul_22_1223,compare_lines,2021.1.4,60.02907928654828,
vertical,0,0,0,0,69,3,279,1,,,,,,,,,,,,,817.097148849,None,817.5972978739999,None,818.5972036639998,None,down,0.7038062199999331,819.097276233,None,None,None,None,1.7894736842105263,1.7894736842105263,300,-300,600,left,right,,dave,001,2021_Jul_22_1223,compare_lines,2021.1.4,60.02907928654828,
diagonal2,0,0,0,0,70,0,280,3,,,,,,,,,,,,,819.814121703,None,820.3142056919999,None,821.314325602,None,left,0.5042012540000087,821.8143214249999,None,None,None,None,3.526315789473684,1.4736842105263157,300,-300,600,left,right,,dave,001,2021_Jul_22_1223,compare_lines,2021.1.4,60.02907928654828,
horizontal,0,0,0,0,70,1,281,0,,,,,,,,,,,,,822.330952686,None,822.8309356289999,None,823.831068447,None,down,3.117312702999925,824.331046754,None,None,None,None,1.4736842105263157,2.263157894736842,300,-300,600,right,left,,dave,001,2021_Jul_22_1223,compare_lines,2021.1.4,60.02907928654828,
vertical,0,0,0,0,70,2,282,1,,,,,,,,,,,,,827.4646214469999,None,827.9646792419999,None,828.9647375489999,None,down,0.53795536299981,829.4647899849999,None,None,None,None,1.4736842105263157,1.4736842105263157,300,-300,600,right,left,,dave,001,2021_Jul_22_1223,compare_lines,2021.1.4,60.02907928654828,
diagonal1,0,0,0,0,70,3,283,2,,,,,,,,,,,,,830.0148317969999,None,830.514760668,None,831.514942728,None,left,0.9042196069999591,832.0150166779999,None,None,None,None,2.263157894736842,1.3157894736842106,300,-300,600,left,right,,dave,001,2021_Jul_22_1223,compare_lines,2021.1.4,60.02907928654828,
horizontal,0,0,0,0,71,0,284,0,,,,,,,,,,,,,832.9317101069998,None,833.4317879309999,None,834.4318079899999,None,right,0.5204592909999519,834.9318873029999,None,None,None,None,2.1052631578947367,3.6842105263157894,300,-300,600,left,right,,dave,001,2021_Jul_22_1223,compare_lines,2021.1.4,60.02907928654828,
vertical,0,0,0,0,71,1,285,1,,,,,,,,,,,,,835.4652206859998,None,835.965274141,None,836.965173096,None,down,0.9209627629998067,837.465354896,None,None,None,None,1.7894736842105263,2.7368421052631575,300,-300,600,left,right,,dave,001,2021_Jul_22_1223,compare_lines,2021.1.4,60.02907928654828,
diagonal1,0,0,0,0,71,2,286,2,,,,,,,,,,,,,838.398783499,None,838.8988881179998,None,839.8988539529998,None,left,0.5871574269999655,840.3989261629999,None,None,None,None,3.526315789473684,3.526315789473684,300,-300,600,right,left,,dave,001,2021_Jul_22_1223,compare_lines,2021.1.4,60.02907928654828,
diagonal2,0,0,0,0,71,3,287,3,,,,,,,,,,,,,840.999017629,None,841.498872057,None,842.4988588439999,None,right,0.43702088999998523,842.9991245599999,None,None,None,None,1.3157894736842106,2.7368421052631575,300,-300,600,left,right,,dave,001,2021_Jul_22_1223,compare_lines,2021.1.4,60.02907928654828,
diagonal2,0,0,0,0,72,0,288,3,,,,,,,,,,,,,843.449059588,None,843.949071602,None,844.9490375139999,None,left,1.3339474259998951,845.449212363,None,None,None,None,2.1052631578947367,1.0,300,-300,600,left,right,,dave,001,2021_Jul_22_1223,compare_lines,2021.1.4,60.02907928654828,
vertical,0,0,0,0,72,1,289,1,,,,,,,,,,,,,846.7992932089999,None,847.2993447389999,None,848.299422009,None,right,0.4710595840001588,848.799550014,None,None,None,None,1.4736842105263157,4.0,300,-300,600,left,right,,dave,001,2021_Jul_22_1223,compare_lines,2021.1.4,60.02907928654828,
horizontal,0,0,0,0,72,2,290,0,,,,,,,,,,,,,849.2828287,None,849.782816097,None,850.782925347,None,down,0.8369448629998715,851.2829445689999,None,None,None,None,1.9473684210526314,1.631578947368421,300,-300,600,right,left,,dave,001,2021_Jul_22_1223,compare_lines,2021.1.4,60.02907928654828,
diagonal1,0,0,0,0,72,3,291,2,,,,,,,,,,,,,852.1329474019999,None,852.6331074099999,None,853.6331633039999,None,left,1.2336256269998103,854.1333244709999,None,None,None,None,1.4736842105263157,1.1578947368421053,300,-300,600,left,right,,dave,001,2021_Jul_22_1223,compare_lines,2021.1.4,60.02907928654828,
horizontal,0,0,0,0,73,0,292,0,,,,,,,,,,,,,855.383147089,None,855.8832914909999,None,856.8832324299999,None,down,0.6869758139998794,857.383178805,None,None,None,None,3.8421052631578947,3.526315789473684,300,-300,600,left,right,,dave,001,2021_Jul_22_1223,compare_lines,2021.1.4,60.02907928654828,
vertical,0,0,0,0,73,1,293,1,,,,,,,,,,,,,858.083412598,None,858.583441813,None,859.5835215329998,None,left,0.50317604199995,860.083564924,None,None,None,None,4.0,1.3157894736842106,300,-300,600,left,right,,dave,001,2021_Jul_22_1223,compare_lines,2021.1.4,60.02907928654828,
diagonal2,0,0,0,0,73,2,294,3,,,,,,,,,,,,,860.6002419869999,None,861.100325759,None,862.10033574,None,left,0.6036604379999062,862.600362269,None,None,None,None,2.263157894736842,1.0,300,-300,600,left,right,,dave,001,2021_Jul_22_1223,compare_lines,2021.1.4,60.02907928654828,
diagonal1,0,0,0,0,73,3,295,2,,,,,,,,,,,,,863.2171172859998,None,863.7171337489999,None,864.7171372809999,None,left,0.45358996200002366,865.217217763,None,None,None,None,3.8421052631578947,1.1578947368421053,300,-300,600,right,left,,dave,001,2021_Jul_22_1223,compare_lines,2021.1.4,60.02907928654828,
diagonal2,0,0,0,0,74,0,296,3,,,,,,,,,,,,,865.684003478,None,866.183845994,None,867.18416824,None,left,0.8369052859998192,867.684144195,None,None,None,None,1.631578947368421,1.0,300,-300,600,right,left,,dave,001,2021_Jul_22_1223,compare_lines,2021.1.4,60.02907928654828,
vertical,0,0,0,0,74,1,297,1,,,,,,,,,,,,,868.534158683,None,869.034121291,None,870.03417642,None,down,1.8672657900001468,870.5343548399999,None,None,None,None,1.631578947368421,1.4736842105263157,300,-300,600,right,left,,dave,001,2021_Jul_22_1223,compare_lines,2021.1.4,60.02907928654828,
diagonal1,0,0,0,0,74,2,298,2,,,,,,,,,,,,,872.4177005039999,None,872.9179559859999,None,873.9179226689998,None,down,0.870448314999976,874.4179541639999,None,None,None,None,3.6842105263157894,4.0,300,-300,600,left,right,,dave,001,2021_Jul_22_1223,compare_lines,2021.1.4,60.02907928654828,
horizontal,0,0,0,0,74,3,299,0,,,,,,,,,,,,,875.301717606,None,875.8013059150001,None,876.8014172329999,None,left,0.604725260999885,877.3013122519999,None,None,None,None,1.7894736842105263,2.5789473684210527,300,-300,600,right,left,,dave,001,2021_Jul_22_1223,compare_lines,2021.1.4,60.02907928654828,
diagonal2,0,0,0,0,75,0,300,3,,,,,,,,,,,,,877.918091813,None,878.4181944009999,None,879.418296677,None,right,0.6377025890001278,879.918290906,None,None,None,None,1.4736842105263157,2.894736842105263,300,-300,600,left,right,,dave,001,2021_Jul_22_1223,compare_lines,2021.1.4,60.02907928654828,
horizontal,0,0,0,0,75,1,301,0,,,,,,,,,,,,,880.568375911,None,881.068216805,None,882.0683680759998,None,down,0.6717818560000524,882.568455506,None,None,None,None,1.9473684210526314,1.9473684210526314,300,-300,600,right,left,,dave,001,2021_Jul_22_1223,compare_lines,2021.1.4,60.02907928654828,
diagonal1,0,0,0,0,75,2,302,2,,,,,,,,,,,,,883.251862764,None,883.7518083739999,None,884.751914622,None,right,0.7039106849999825,885.251967743,None,None,None,None,1.9473684210526314,3.8421052631578947,300,-300,600,left,right,,dave,001,2021_Jul_22_1223,compare_lines,2021.1.4,60.02907928654828,
vertical,0,0,0,0,75,3,303,1,,,,,,,,,,,,,885.968690031,None,886.468778984,None,887.4687200839999,None,right,0.6036384679998719,887.9686476899999,None,None,None,None,2.5789473684210527,3.8421052631578947,300,-300,600,left,right,,dave,001,2021_Jul_22_1223,compare_lines,2021.1.4,60.02907928654828,
diagonal2,0,0,0,0,76,0,304,3,,,,,,,,,,,,,888.5855286149999,None,889.085523895,None,890.085640039,None,right,0.6539398220002113,890.585609661,None,None,None,None,3.052631578947368,3.052631578947368,300,-300,600,left,right,,dave,001,2021_Jul_22_1223,compare_lines,2021.1.4,60.02907928654828,
vertical,0,0,0,0,76,1,305,1,,,,,,,,,,,,,891.252357583,None,891.752340599,None,892.752512133,None,left,0.6382268029999523,893.252483259,None,None,None,None,3.3684210526315788,1.9473684210526314,300,-300,600,right,left,,dave,001,2021_Jul_22_1223,compare_lines,2021.1.4,60.02907928654828,
diagonal1,0,0,0,0,76,2,306,2,,,,,,,,,,,,,893.9025225579999,None,894.4026311569999,None,895.4025842239998,None,left,0.5875116270001399,895.9026551449999,None,None,None,None,2.7368421052631575,1.9473684210526314,300,-300,600,right,left,,dave,001,2021_Jul_22_1223,compare_lines,2021.1.4,60.02907928654828,
horizontal,0,0,0,0,76,3,307,0,,,,,,,,,,,,,896.5027292729999,None,897.002835843,None,898.0029125579999,None,right,0.4533373550000306,898.502968663,None,None,None,None,1.7894736842105263,4.0,300,-300,600,right,left,,dave,001,2021_Jul_22_1223,compare_lines,2021.1.4,60.02907928654828,
diagonal2,0,0,0,0,77,0,308,3,,,,,,,,,,,,,898.9694376559999,None,899.469545569,None,900.469613704,None,down,1.4836454979999871,900.9698649959998,None,None,None,None,1.7894736842105263,1.7894736842105263,300,-300,600,left,right,,dave,001,2021_Jul_22_1223,compare_lines,2021.1.4,60.02907928654828,
diagonal1,0,0,0,0,77,1,309,2,,,,,,,,,,,,,902.4696810189998,None,902.969888566,None,903.969812718,None,right,0.886878773999797,904.4700126299999,None,None,None,None,3.052631578947368,3.6842105263157894,300,-300,600,right,left,,dave,001,2021_Jul_22_1223,compare_lines,2021.1.4,60.02907928654828,
horizontal,0,0,0,0,77,2,310,0,,,,,,,,,,,,,905.370049439,None,905.8700147759998,None,906.8700840219999,None,right,0.7536943249999695,907.3700949929998,None,None,None,None,2.1052631578947367,2.4210526315789473,300,-300,600,left,right,,dave,001,2021_Jul_22_1223,compare_lines,2021.1.4,60.02907928654828,
vertical,0,0,0,0,77,3,311,1,,,,,,,,,,,,,908.13683124,None,908.636927866,None,909.636875612,None,down,0.6866845879999346,910.137374512,None,None,None,None,3.8421052631578947,3.8421052631578947,300,-300,600,right,left,,dave,001,2021_Jul_22_1223,compare_lines,2021.1.4,60.02907928654828,
vertical,0,0,0,0,78,0,312,1,,,,,,,,,,,,,910.8369133839999,None,911.336998321,None,912.3371132779998,None,down,0.8375735199999781,912.837171747,None,None,None,None,4.0,4.0,300,-300,600,left,right,,dave,001,2021_Jul_22_1223,compare_lines,2021.1.4,60.02907928654828,
horizontal,0,0,0,0,78,1,313,0,,,,,,,,,,,,,913.6872821059999,None,914.187092229,None,915.187406881,None,down,0.6371408689999498,915.687365146,None,None,None,None,3.3684210526315788,3.3684210526315788,300,-300,600,left,right,,dave,001,2021_Jul_22_1223,compare_lines,2021.1.4,60.02907928654828,
diagonal1,0,0,0,0,78,2,314,2,,,,,,,,,,,,,916.337515615,None,916.837484426,None,917.837526113,None,down,0.9704657909999241,918.337306247,None,None,None,None,2.1052631578947367,2.1052631578947367,300,-300,600,right,left,,dave,001,2021_Jul_22_1223,compare_lines,2021.1.4,60.02907928654828,
diagonal2,0,0,0,0,78,3,315,3,,,,,,,,,,,,,919.320958995,None,919.821155243,None,920.821092747,None,left,0.6542888020001101,921.321083051,None,None,None,None,3.526315789473684,3.526315789473684,300,-300,600,right,left,,dave,001,2021_Jul_22_1223,compare_lines,2021.1.4,60.02907928654828,
horizontal,0,0,0,0,79,0,316,0,,,,,,,,,,,,,921.987740862,None,922.487857097,None,923.4879397909999,None,down,0.7550747289999435,923.9880193869999,None,None,None,None,2.5789473684210527,2.7368421052631575,300,-300,600,left,right,,dave,001,2021_Jul_22_1223,compare_lines,2021.1.4,60.02907928654828,
vertical,0,0,0,0,79,1,317,1,,,,,,,,,,,,,924.7544709909998,None,925.254692643,None,926.254860863,None,left,0.7211329420001675,926.7548566,None,None,None,None,1.3157894736842106,1.0,300,-300,600,left,right,,dave,001,2021_Jul_22_1223,compare_lines,2021.1.4,60.02907928654828,
diagonal2,0,0,0,0,79,2,318,3,,,,,,,,,,,,,927.48822378,None,927.988220343,None,928.9883561239999,None,left,0.7202052979998825,929.488387247,None,None,None,None,1.9473684210526314,1.3157894736842106,300,-300,600,left,right,,dave,001,2021_Jul_22_1223,compare_lines,2021.1.4,60.02907928654828,
diagonal1,0,0,0,0,79,3,319,2,,,,,,,,,,,,,930.2216266999999,None,930.721886479,None,931.722273908,None,left,1.0672842520000358,932.221757621,None,None,None,None,2.5789473684210527,1.9473684210526314,300,-300,600,left,right,,dave,001,2021_Jul_22_1223,compare_lines,2021.1.4,60.02907928654828,
horizontal,0,0,0,0,80,0,320,0,,,,,,,,,,,,,933.305317263,None,933.805326551,None,934.8054489039998,None,down,1.7340890919999765,935.305331904,None,None,None,None,1.4736842105263157,1.4736842105263157,300,-300,600,left,right,,dave,001,2021_Jul_22_1223,compare_lines,2021.1.4,60.02907928654828,
diagonal2,0,0,0,0,80,1,321,3,,,,,,,,,,,,,937.055414273,None,937.5555699919998,None,938.5556120309998,None,right,0.6049365740000212,939.0557946690001,None,None,None,None,1.4736842105263157,2.263157894736842,300,-300,600,right,left,,dave,001,2021_Jul_22_1223,compare_lines,2021.1.4,60.02907928654828,
vertical,0,0,0,0,80,2,322,1,,,,,,,,,,,,,939.67249274,None,940.172415514,None,941.172593457,None,down,0.8368699539996669,941.6725569999999,None,None,None,None,4.0,4.0,300,-300,600,left,right,,dave,001,2021_Jul_22_1223,compare_lines,2021.1.4,60.02907928654828,
diagonal1,0,0,0,0,80,3,323,2,,,,,,,,,,,,,942.5222056029997,None,943.0226601680001,None,944.0226854429998,None,left,0.6210068890000002,944.522631373,None,None,None,None,3.6842105263157894,1.9473684210526314,300,-300,600,left,right,,dave,001,2021_Jul_22_1223,compare_lines,2021.1.4,60.02907928654828,
diagonal1,0,0,0,0,81,0,324,2,,,,,,,,,,,,,945.1561560760001,None,945.656100102,None,946.656145425,None,down,0.7869777340001747,947.1561250569998,None,None,None,None,2.7368421052631575,2.7368421052631575,300,-300,600,left,right,,dave,001,2021_Jul_22_1223,compare_lines,2021.1.4,60.02907928654828,
horizontal,0,0,0,0,81,1,325,0,,,,,,,,,,,,,947.9563869819999,None,948.4562859839998,None,949.456457452,None,down,0.9207939419998183,949.9565011129998,None,None,None,None,2.5789473684210527,2.5789473684210527,300,-300,600,left,right,,dave,001,2021_Jul_22_1223,compare_lines,2021.1.4,60.02907928654828,
vertical,0,0,0,0,81,2,326,1,,,,,,,,,,,,,950.8897596299998,None,951.3899086779998,None,952.3900082360001,None,down,0.8876542759999211,952.8900249560002,None,None,None,None,3.052631578947368,3.052631578947368,300,-300,600,left,right,,dave,001,2021_Jul_22_1223,compare_lines,2021.1.4,60.02907928654828,
diagonal2,0,0,0,0,81,3,327,3,,,,,,,,,,,,,953.7901227110001,None,954.2900674339999,None,955.2901304799998,None,right,0.5713463950000914,955.7901475849999,None,None,None,None,1.1578947368421053,3.526315789473684,300,-300,600,right,left,,dave,001,2021_Jul_22_1223,compare_lines,2021.1.4,60.02907928654828,
,0,0,0,0,,,,,,,,,,,,,,,,,,,,,,,,,,,,,,,,,,,,,,dave,001,2021_Jul_22_1223,compare_lines,2021.1.4,60.02907928654828,
horizontal,1,0,1,0,0,0,0,0,,,,,,,956.3780438939998,None,space,60.24770300699993,956.3780438939998,None,1016.642026642,None,None,None,None,None,None,,None,None,left,1017.1421199239999,None,3.6842105263157894,2.5789473684210527,300,-300,600,nan,nan,0.5914131219997216,dave,001,2021_Jul_22_1223,compare_lines,2021.1.4,60.02907928654828,
diagonal2,1,0,1,0,0,1,1,3,,,,,,,,,,,,,1017.7419631610001,None,None,None,None,None,None,,None,None,left,1018.2422658740002,None,3.6842105263157894,1.1578947368421053,300,-300,600,nan,nan,0.5387633979999009,dave,001,2021_Jul_22_1223,compare_lines,2021.1.4,60.02907928654828,
diagonal1,1,0,1,0,0,2,2,2,,,,,,,,,,,,,1018.7921029519998,None,None,None,None,None,None,,None,None,down,1019.2920824029998,None,1.631578947368421,1.631578947368421,300,-300,600,nan,nan,1.0388727909999034,dave,001,2021_Jul_22_1223,compare_lines,2021.1.4,60.02907928654828,
vertical,1,0,1,0,0,3,3,1,,,,,,,,,,,,,1020.342236254,None,None,None,None,None,None,,None,None,down,1020.8420810289999,None,1.7894736842105263,1.7894736842105263,300,-300,600,nan,nan,1.1214047530002063,dave,001,2021_Jul_22_1223,compare_lines,2021.1.4,60.02907928654828,
vertical,1,0,1,0,1,0,4,1,,,,,,,,,,,,,1021.975562614,None,None,None,None,None,None,,None,None,down,1022.4755307800001,None,2.7368421052631575,2.7368421052631575,300,-300,600,nan,nan,1.0057236469997406,dave,001,2021_Jul_22_1223,compare_lines,2021.1.4,60.02907928654828,
diagonal1,1,0,1,0,1,1,5,2,,,,,,,,,,,,,1023.4923655970001,None,None,None,None,None,None,,None,None,left,1023.9924629869997,None,3.3684210526315788,1.0,300,-300,600,nan,nan,0.6084486579998156,dave,001,2021_Jul_22_1223,compare_lines,2021.1.4,60.02907928654828,
horizontal,1,0,1,0,1,2,6,0,,,,,,,,,,,,,1024.6088915639998,None,None,None,None,None,None,,None,None,left,1025.10910908,None,1.3157894736842106,1.3157894736842106,300,-300,600,nan,nan,2.9173018219998994,dave,001,2021_Jul_22_1223,compare_lines,2021.1.4,60.02907928654828,
diagonal2,1,0,1,0,1,3,7,3,,,,,,,,,,,,,1028.0422947359998,None,None,None,None,None,None,,None,None,left,1028.5424455439997,None,3.052631578947368,1.3157894736842106,300,-300,600,nan,nan,0.5740048420002495,dave,001,2021_Jul_22_1223,compare_lines,2021.1.4,60.02907928654828,
