line_orientation,blocks.thisRepN,blocks.thisTrialN,blocks.thisN,blocks.thisIndex,trials.thisRepN,trials.thisTrialN,trials.thisN,trials.thisIndex,InstructionText.started,InstructionText.stopped,InstructionResponse.keys,InstructionResponse.rt,InstructionResponse.started,InstructionResponse.stopped,BlockText.started,BlockText.stopped,key_resp_2.keys,key_resp_2.rt,key_resp_2.started,key_resp_2.stopped,ISITimer.started,ISITimer.stopped,FirstLineTimer.started,FirstLineTimer.stopped,GapTimer.started,GapTimer.stopped,SeqResponse.keys,SeqResponse.rt,SeqResponse.started,SeqResponse.stopped,ResponseSimul.keys,ResponseSimul.started,ResponseSimul.stopped,left_width,right_width,global_line_length,global_starting_point_left_x,global_distance_between_lines,first_line_label,second_line_label,ResponseSimul.rt,participant,session,date,expName,psychopyVersion,frameRate,
,,,,,,,,,17.705854333995376,None,space,35.31615695805522,17.705854333995376,None,,,,,,,,,,,,,,,,,,,,,,,,,,,,LilyRun1,001,2021_Jul_21_0843,compare_lines,2021.1.4,60.322756790583384,
horizontal,0,0,0,0,0,0,0,0,,,,,,,53.06206799997017,None,space,29.236742125009187,53.06206799997017,None,82.35507241694722,None,82.84545654198155,None,83.84543616697192,None,right,0.584132874966599,84.34549354197225,None,None,None,None,2.894736842105263,4.0,300,-300,600,left,right,,LilyRun1,001,2021_Jul_21_0843,compare_lines,2021.1.4,60.322756790583384,
diagonal2,0,0,0,0,0,1,1,3,,,,,,,,,,,,,84.95171624998329,None,85.46222679194761,None,86.4619534999947,None,right,0.5843336249818094,86.96197779197246,None,None,None,None,2.894736842105263,2.894736842105263,300,-300,600,left,right,,LilyRun1,001,2021_Jul_21_0843,compare_lines,2021.1.4,60.322756790583384,
diagonal1,0,0,0,0,0,2,2,2,,,,,,,,,,,,,87.5621241669869,None,88.06221999996342,None,89.06209049996687,None,down,0.9662325830431655,89.56232862494653,None,None,None,None,3.8421052631578947,3.8421052631578947,300,-300,600,right,left,,LilyRun1,001,2021_Jul_21_0843,compare_lines,2021.1.4,60.322756790583384,
vertical,0,0,0,0,0,3,3,1,,,,,,,,,,,,,90.54506708396366,None,91.04608995898161,None,92.04539833398303,None,right,0.5858285829890519,92.5457690419862,None,None,None,None,1.631578947368421,2.894736842105263,300,-300,600,left,right,,LilyRun1,001,2021_Jul_21_0843,compare_lines,2021.1.4,60.322756790583384,
horizontal,0,0,0,0,1,0,4,0,,,,,,,,,,,,,93.16183324996382,None,93.66218524996657,None,94.66189395898255,None,down,0.882635542016942,95.16244854195975,None,None,None,None,2.7368421052631575,2.7368421052631575,300,-300,600,left,right,,LilyRun1,001,2021_Jul_21_0843,compare_lines,2021.1.4,60.322756790583384,
diagonal2,0,0,0,0,1,1,5,3,,,,,,,,,,,,,96.06200670899125,None,96.56259712495375,None,97.56247674999759,None,down,1.1650479579693638,98.06241674994817,None,None,None,None,3.052631578947368,3.052631578947368,300,-300,600,right,left,,LilyRun1,001,2021_Jul_21_0843,compare_lines,2021.1.4,60.322756790583384,
diagonal1,0,0,0,0,1,2,6,2,,,,,,,,,,,,,99.24616679199971,None,99.74623987497762,None,100.74508687498746,None,right,1.026255500037223,101.24617537495214,None,None,None,None,4.0,4.0,300,-300,600,left,right,,LilyRun1,001,2021_Jul_21_0843,compare_lines,2021.1.4,60.322756790583384,
vertical,0,0,0,0,1,3,7,1,,,,,,,,,,,,,102.29542566696182,None,102.79616208397783,None,103.79584245895967,None,left,1.546307499986142,104.29578049998963,None,None,None,None,1.1578947368421053,1.3157894736842106,300,-300,600,left,right,,LilyRun1,001,2021_Jul_21_0843,compare_lines,2021.1.4,60.322756790583384,
diagonal1,0,0,0,0,2,0,8,2,,,,,,,,,,,,,105.86258600000292,None,106.36236333398847,None,107.3625082919607,None,down,1.1194853750057518,107.86232199997175,None,None,None,None,1.0,1.3157894736842106,300,-300,600,left,right,,LilyRun1,001,2021_Jul_21_0843,compare_lines,2021.1.4,60.322756790583384,
diagonal2,0,0,0,0,2,1,9,3,,,,,,,,,,,,,109.01251491694711,None,109.51248049997957,None,110.51250691700261,None,down,1.2422484999988228,111.01288724999176,None,None,None,None,1.1578947368421053,1.1578947368421053,300,-300,600,right,left,,LilyRun1,001,2021_Jul_21_0843,compare_lines,2021.1.4,60.322756790583384,
vertical,0,0,0,0,2,2,10,1,,,,,,,,,,,,,112.27879158395808,None,112.77893074997701,None,113.77884758397704,None,right,0.663847916002851,114.27939158398658,None,None,None,None,2.7368421052631575,3.3684210526315788,300,-300,600,left,right,,LilyRun1,001,2021_Jul_21_0843,compare_lines,2021.1.4,60.322756790583384,
horizontal,0,0,0,0,2,3,11,0,,,,,,,,,,,,,114.96222737495555,None,115.46241041697795,None,116.46267108398024,None,down,1.162517500051763,116.96236649999628,None,None,None,None,2.1052631578947367,2.1052631578947367,300,-300,600,right,left,,LilyRun1,001,2021_Jul_21_0843,compare_lines,2021.1.4,60.322756790583384,
horizontal,0,0,0,0,3,0,12,0,,,,,,,,,,,,,118.1461191669805,None,118.64570983400336,None,119.64650454197545,None,down,1.221874208014924,120.1463989999611,None,None,None,None,3.052631578947368,2.263157894736842,300,-300,600,left,right,,LilyRun1,001,2021_Jul_21_0843,compare_lines,2021.1.4,60.322756790583384,
vertical,0,0,0,0,3,1,13,1,,,,,,,,,,,,,121.39631112496136,None,121.89637783396756,None,122.89583087497158,None,right,1.0079405410215259,123.3966684169718,None,None,None,None,3.3684210526315788,3.3684210526315788,300,-300,600,left,right,,LilyRun1,001,2021_Jul_21_0843,compare_lines,2021.1.4,60.322756790583384,
diagonal2,0,0,0,0,3,2,14,3,,,,,,,,,,,,,124.42924212495564,None,124.92930462496588,None,125.92894883395638,None,down,1.1092733339755796,126.42925712495344,None,None,None,None,2.7368421052631575,3.052631578947368,300,-300,600,left,right,,LilyRun1,001,2021_Jul_21_0843,compare_lines,2021.1.4,60.322756790583384,
diagonal1,0,0,0,0,3,3,15,2,,,,,,,,,,,,,127.5623367090011,None,128.0625416249968,None,129.0636127499747,None,down,1.2075106659904122,129.56283545895712,None,None,None,None,2.5789473684210527,2.5789473684210527,300,-300,600,left,right,,LilyRun1,001,2021_Jul_21_0843,compare_lines,2021.1.4,60.322756790583384,
diagonal1,0,0,0,0,4,0,16,2,,,,,,,,,,,,,130.79563195898663,None,131.29645845899358,None,132.29592437495012,None,down,1.1368606670293957,132.7959296249901,None,None,None,None,3.3684210526315788,3.3684210526315788,300,-300,600,right,left,,LilyRun1,001,2021_Jul_21_0843,compare_lines,2021.1.4,60.322756790583384,
diagonal2,0,0,0,0,4,1,17,3,,,,,,,,,,,,,133.9628400419606,None,134.46311995899305,None,135.46287204197142,None,left,0.8636082090088166,135.96303387498483,None,None,None,None,3.052631578947368,1.9473684210526314,300,-300,600,right,left,,LilyRun1,001,2021_Jul_21_0843,compare_lines,2021.1.4,60.322756790583384,
vertical,0,0,0,0,4,2,18,1,,,,,,,,,,,,,136.84573829197325,None,137.34589437500108,None,138.34619270899566,None,down,1.1954626659862697,138.84649745898787,None,None,None,None,2.894736842105263,3.2105263157894735,300,-300,600,right,left,,LilyRun1,001,2021_Jul_21_0843,compare_lines,2021.1.4,60.322756790583384,
horizontal,0,0,0,0,4,3,19,0,,,,,,,,,,,,,140.06299874995602,None,140.56292495899834,None,141.56265974999405,None,right,0.6867046249681152,142.06297312496463,None,None,None,None,1.1578947368421053,2.5789473684210527,300,-300,600,right,left,,LilyRun1,001,2021_Jul_21_0843,compare_lines,2021.1.4,60.322756790583384,
vertical,0,0,0,0,5,0,20,1,,,,,,,,,,,,,142.77931458398234,None,143.27939087495906,None,144.2794668339775,None,right,1.394235708983615,144.77931004198035,None,None,None,None,2.5789473684210527,2.5789473684210527,300,-300,600,right,left,,LilyRun1,001,2021_Jul_21_0843,compare_lines,2021.1.4,60.322756790583384,
diagonal1,0,0,0,0,5,1,21,2,,,,,,,,,,,,,146.19623012497323,None,146.69714579195715,None,147.6962706669583,None,down,1.2798251250060275,148.19691912498092,None,None,None,None,1.0,1.0,300,-300,600,right,left,,LilyRun1,001,2021_Jul_21_0843,compare_lines,2021.1.4,60.322756790583384,
horizontal,0,0,0,0,5,2,22,0,,,,,,,,,,,,,149.49656249996042,None,149.99641074996907,None,150.99685933400178,None,right,1.2741922090062872,151.49594587495085,None,None,None,None,2.7368421052631575,3.526315789473684,300,-300,600,right,left,,LilyRun1,001,2021_Jul_21_0843,compare_lines,2021.1.4,60.322756790583384,
diagonal2,0,0,0,0,5,3,23,3,,,,,,,,,,,,,152.79663683398394,None,153.29653870896436,None,154.29593137500342,None,right,1.1198686250136234,154.79676774999825,None,None,None,None,2.263157894736842,4.0,300,-300,600,right,left,,LilyRun1,001,2021_Jul_21_0843,compare_lines,2021.1.4,60.322756790583384,
horizontal,0,0,0,0,6,0,24,0,,,,,,,,,,,,,155.9463509999914,None,156.4458387499908,None,157.4463584589539,None,down,1.5945890829898417,157.94676362496102,None,None,None,None,1.1578947368421053,1.0,300,-300,600,left,right,,LilyRun1,001,2021_Jul_21_0843,compare_lines,2021.1.4,60.322756790583384,
vertical,0,0,0,0,6,1,25,1,,,,,,,,,,,,,159.56307054194622,None,160.06355670897756,None,161.06305783399148,None,down,1.275709374982398,161.5631505419733,None,None,None,None,2.7368421052631575,3.8421052631578947,300,-300,600,right,left,,LilyRun1,001,2021_Jul_21_0843,compare_lines,2021.1.4,60.322756790583384,
diagonal2,0,0,0,0,6,2,26,3,,,,,,,,,,,,,162.86274945898913,None,163.36352533398895,None,164.36361737496918,None,right,1.049068249994889,164.8636077089468,None,None,None,None,2.263157894736842,2.7368421052631575,300,-300,600,right,left,,LilyRun1,001,2021_Jul_21_0843,compare_lines,2021.1.4,60.322756790583384,
diagonal1,0,0,0,0,6,3,27,2,,,,,,,,,,,,,165.92996045894688,None,166.42951975000324,None,167.42940608394565,None,right,1.018348750018049,167.93033758399542,None,None,None,None,1.7894736842105263,3.052631578947368,300,-300,600,right,left,,LilyRun1,001,2021_Jul_21_0843,compare_lines,2021.1.4,60.322756790583384,
diagonal1,0,0,0,0,7,0,28,2,,,,,,,,,,,,,168.98013387498213,None,169.47938520897878,None,170.47944395896047,None,right,2.4385301250149496,170.979814041988,None,None,None,None,1.1578947368421053,3.052631578947368,300,-300,600,left,right,,LilyRun1,001,2021_Jul_21_0843,compare_lines,2021.1.4,60.322756790583384,
vertical,0,0,0,0,7,1,29,1,,,,,,,,,,,,,173.44740316696698,None,173.9462032499723,None,174.94606670900248,None,down,1.2212656250339933,175.44616645894712,None,None,None,None,1.1578947368421053,1.1578947368421053,300,-300,600,left,right,,LilyRun1,001,2021_Jul_21_0843,compare_lines,2021.1.4,60.322756790583384,
horizontal,0,0,0,0,7,2,30,0,,,,,,,,,,,,,176.69649791700067,None,177.196453499957,None,178.1962566669681,None,down,0.9974202919984236,178.69637045898708,None,None,None,None,1.4736842105263157,1.4736842105263157,300,-300,600,right,left,,LilyRun1,001,2021_Jul_21_0843,compare_lines,2021.1.4,60.322756790583384,
diagonal2,0,0,0,0,7,3,31,3,,,,,,,,,,,,,179.7130840839818,None,180.21276379196206,None,181.2134279589518,None,right,1.0833233749726787,181.71320462494623,None,None,None,None,2.894736842105263,3.052631578947368,300,-300,600,left,right,,LilyRun1,001,2021_Jul_21_0843,compare_lines,2021.1.4,60.322756790583384,
horizontal,0,0,0,0,8,0,32,0,,,,,,,,,,,,,182.82967241696315,None,183.32959458394907,None,184.3298773749848,None,left,1.5164519579848275,184.82993554195855,None,None,None,None,2.7368421052631575,2.1052631578947367,300,-300,600,right,left,,LilyRun1,001,2021_Jul_21_0843,compare_lines,2021.1.4,60.322756790583384,
diagonal2,0,0,0,0,8,1,33,3,,,,,,,,,,,,,186.362842292001,None,186.99598783400143,None,187.87958945898572,None,down,1.383351832977496,188.380452124984,None,None,None,None,1.631578947368421,1.1578947368421053,300,-300,600,right,left,,LilyRun1,001,2021_Jul_21_0843,compare_lines,2021.1.4,60.322756790583384,
diagonal1,0,0,0,0,8,2,34,2,,,,,,,,,,,,,189.7963840419543,None,190.2964570419863,None,191.29668362496886,None,left,1.026934458001051,191.79691741697025,None,None,None,None,2.263157894736842,1.0,300,-300,600,left,right,,LilyRun1,001,2021_Jul_21_0843,compare_lines,2021.1.4,60.322756790583384,
vertical,0,0,0,0,8,3,35,1,,,,,,,,,,,,,192.84716374997515,None,193.34663029195508,None,194.3463734999532,None,right,0.7590292499517091,194.8465862919693,None,None,None,None,1.7894736842105263,3.6842105263157894,300,-300,600,left,right,,LilyRun1,001,2021_Jul_21_0843,compare_lines,2021.1.4,60.322756790583384,
vertical,0,0,0,0,9,0,36,1,,,,,,,,,,,,,195.63037866697414,None,196.12981270899763,None,197.1294627089519,None,left,0.9862490420346148,197.63010808394756,None,None,None,None,2.7368421052631575,1.631578947368421,300,-300,600,left,right,,LilyRun1,001,2021_Jul_21_0843,compare_lines,2021.1.4,60.322756790583384,
diagonal1,0,0,0,0,9,1,37,2,,,,,,,,,,,,,198.64617441699374,None,199.14684920897707,None,200.1464562919573,None,left,1.094708457996603,200.64652783394558,None,None,None,None,3.2105263157894735,3.2105263157894735,300,-300,600,right,left,,LilyRun1,001,2021_Jul_21_0843,compare_lines,2021.1.4,60.322756790583384,
horizontal,0,0,0,0,9,2,38,0,,,,,,,,,,,,,201.76342958398163,None,202.2634406669531,None,203.26316174998647,None,left,1.5565692079835571,203.7639141669497,None,None,None,None,2.5789473684210527,1.9473684210526314,300,-300,600,right,left,,LilyRun1,001,2021_Jul_21_0843,compare_lines,2021.1.4,60.322756790583384,
diagonal2,0,0,0,0,9,3,39,3,,,,,,,,,,,,,205.34658566699363,None,205.84701441699872,None,206.8476895839558,None,down,1.0588166670058854,207.36349383398192,None,None,None,None,3.052631578947368,2.5789473684210527,300,-300,600,left,right,,LilyRun1,001,2021_Jul_21_0843,compare_lines,2021.1.4,60.322756790583384,
diagonal1,0,0,0,0,10,0,40,2,,,,,,,,,,,,,208.4468380420003,None,208.94689574994845,None,209.94677337497706,None,down,1.4151562919723801,210.44708629196975,None,None,None,None,3.052631578947368,3.3684210526315788,300,-300,600,right,left,,LilyRun1,001,2021_Jul_21_0843,compare_lines,2021.1.4,60.322756790583384,
vertical,0,0,0,0,10,1,41,1,,,,,,,,,,,,,211.88041499996325,None,212.38050508400192,None,213.3802505839849,None,left,0.9312720000161789,213.88044924999122,None,None,None,None,3.2105263157894735,1.1578947368421053,300,-300,600,left,right,,LilyRun1,001,2021_Jul_21_0843,compare_lines,2021.1.4,60.322756790583384,
horizontal,0,0,0,0,10,2,42,0,,,,,,,,,,,,,214.8297808339703,None,215.3308084589662,None,216.33001795900054,None,left,0.46109487500507385,216.83029970899224,None,None,None,None,2.7368421052631575,2.5789473684210527,300,-300,600,right,left,,LilyRun1,001,2021_Jul_21_0843,compare_lines,2021.1.4,60.322756790583384,
diagonal2,0,0,0,0,10,3,43,3,,,,,,,,,,,,,217.31325820897473,None,217.81389983400004,None,218.81381333398167,None,right,0.5644830410019495,219.31320962496102,None,None,None,None,1.0,3.526315789473684,300,-300,600,right,left,,LilyRun1,001,2021_Jul_21_0843,compare_lines,2021.1.4,60.322756790583384,
diagonal2,0,0,0,0,11,0,44,3,,,,,,,,,,,,,219.8970964999753,None,220.39696704194648,None,221.39701045898255,None,down,0.831294666044414,221.8976858339738,None,None,None,None,2.1052631578947367,1.7894736842105263,300,-300,600,left,right,,LilyRun1,001,2021_Jul_21_0843,compare_lines,2021.1.4,60.322756790583384,
vertical,0,0,0,0,11,1,45,1,,,,,,,,,,,,,222.74644408398308,None,223.24759183399146,None,224.24710358399898,None,right,0.5502021670108661,224.74677458399674,None,None,None,None,2.1052631578947367,3.3684210526315788,300,-300,600,left,right,,LilyRun1,001,2021_Jul_21_0843,compare_lines,2021.1.4,60.322756790583384,
diagonal1,0,0,0,0,11,2,46,2,,,,,,,,,,,,,225.31351729197195,None,225.8143299589865,None,226.81403174996376,None,left,1.5494891660055146,227.3140383339487,None,None,None,None,3.8421052631578947,2.1052631578947367,300,-300,600,left,right,,LilyRun1,001,2021_Jul_21_0843,compare_lines,2021.1.4,60.322756790583384,
horizontal,0,0,0,0,11,3,47,0,,,,,,,,,,,,,228.8804641669849,None,229.38044812495355,None,230.38013108394807,None,right,0.6763774160062894,230.88037933397572,None,None,None,None,1.631578947368421,3.6842105263157894,300,-300,600,right,left,,LilyRun1,001,2021_Jul_21_0843,compare_lines,2021.1.4,60.322756790583384,
diagonal2,0,0,0,0,12,0,48,3,,,,,,,,,,,,,231.57995745894732,None,232.0803963749786,None,233.080520916963,None,down,1.1543279580073431,233.58066237496678,None,None,None,None,3.052631578947368,2.4210526315789473,300,-300,600,left,right,,LilyRun1,001,2021_Jul_21_0843,compare_lines,2021.1.4,60.322756790583384,
horizontal,0,0,0,0,12,1,49,0,,,,,,,,,,,,,234.76337866694666,None,235.2634048339678,None,236.2640430839965,None,down,1.055991291999817,236.76374916697387,None,None,None,None,1.0,1.0,300,-300,600,left,right,,LilyRun1,001,2021_Jul_21_0843,compare_lines,2021.1.4,60.322756790583384,
vertical,0,0,0,0,12,2,50,1,,,,,,,,,,,,,237.8465602499782,None,238.34729570895433,None,239.3469708339544,None,right,0.6035807920270599,239.84680645895423,None,None,None,None,3.2105263157894735,3.6842105263157894,300,-300,600,left,right,,LilyRun1,001,2021_Jul_21_0843,compare_lines,2021.1.4,60.322756790583384,
diagonal1,0,0,0,0,12,3,51,2,,,,,,,,,,,,,240.4801763339783,None,240.9804723749985,None,241.98083941696677,None,right,1.060103291994892,242.4807129999972,None,None,None,None,1.3157894736842106,4.0,300,-300,600,left,right,,LilyRun1,001,2021_Jul_21_0843,compare_lines,2021.1.4,60.322756790583384,
diagonal2,0,0,0,0,13,0,52,3,,,,,,,,,,,,,243.56402424996486,None,244.06374249997316,None,245.06391849997453,None,down,1.262499958043918,245.56409612495918,None,None,None,None,2.5789473684210527,2.263157894736842,300,-300,600,right,left,,LilyRun1,001,2021_Jul_21_0843,compare_lines,2021.1.4,60.322756790583384,
diagonal1,0,0,0,0,13,1,53,2,,,,,,,,,,,,,246.84714658395387,None,247.34709229198052,None,248.34690258395858,None,down,1.3080998749937862,248.8472223339486,None,None,None,None,3.8421052631578947,3.3684210526315788,300,-300,600,left,right,,LilyRun1,001,2021_Jul_21_0843,compare_lines,2021.1.4,60.322756790583384,
horizontal,0,0,0,0,13,2,54,0,,,,,,,,,,,,,250.18071474996395,None,250.6812642919831,None,251.68066179199377,None,down,0.9640290000243112,252.18043433397543,None,None,None,None,3.052631578947368,3.052631578947368,300,-300,600,left,right,,LilyRun1,001,2021_Jul_21_0843,compare_lines,2021.1.4,60.322756790583384,
vertical,0,0,0,0,13,3,55,1,,,,,,,,,,,,,253.1636162919458,None,253.66438424994703,None,254.66378624999197,None,right,1.0642629580106586,255.16389212495415,None,None,None,None,1.0,4.0,300,-300,600,left,right,,LilyRun1,001,2021_Jul_21_0843,compare_lines,2021.1.4,60.322756790583384,
diagonal1,0,0,0,0,14,0,56,2,,,,,,,,,,,,,256.2473707089666,None,256.7471335839946,None,257.7469322089455,None,right,1.5354565829620697,258.2473946249811,None,None,None,None,3.526315789473684,3.8421052631578947,300,-300,600,left,right,,LilyRun1,001,2021_Jul_21_0843,compare_lines,2021.1.4,60.322756790583384,
vertical,0,0,0,0,14,1,57,1,,,,,,,,,,,,,259.81429020897485,None,260.314292458992,None,261.31456058396725,None,left,1.2007861660094932,261.8146037919796,None,None,None,None,3.8421052631578947,2.263157894736842,300,-300,600,right,left,,LilyRun1,001,2021_Jul_21_0843,compare_lines,2021.1.4,60.322756790583384,
horizontal,0,0,0,0,14,2,58,0,,,,,,,,,,,,,263.0467562919948,None,263.54723062500125,None,264.5475144169759,None,right,0.6457688749651425,265.04734429199016,None,None,None,None,1.3157894736842106,2.7368421052631575,300,-300,600,left,right,,LilyRun1,001,2021_Jul_21_0843,compare_lines,2021.1.4,60.322756790583384,
diagonal2,0,0,0,0,14,3,59,3,,,,,,,,,,,,,265.7136615839554,None,266.2147455419763,None,267.21342666697456,None,down,1.1970529169775546,267.7140553749632,None,None,None,None,2.894736842105263,3.6842105263157894,300,-300,600,right,left,,LilyRun1,001,2021_Jul_21_0843,compare_lines,2021.1.4,60.322756790583384,
vertical,0,0,0,0,15,0,60,1,,,,,,,,,,,,,268.93097524996847,None,269.43108187499456,None,270.4304364169948,None,right,0.954916000016965,270.9312935839989,None,None,None,None,1.4736842105263157,2.7368421052631575,300,-300,600,right,left,,LilyRun1,001,2021_Jul_21_0843,compare_lines,2021.1.4,60.322756790583384,
diagonal1,0,0,0,0,15,1,61,2,,,,,,,,,,,,,271.9139234169852,None,272.4144898749655,None,273.41392837499734,None,left,0.4954357919632457,273.9145621249918,None,None,None,None,3.8421052631578947,1.3157894736842106,300,-300,600,left,right,,LilyRun1,001,2021_Jul_21_0843,compare_lines,2021.1.4,60.322756790583384,
diagonal2,0,0,0,0,15,2,62,3,,,,,,,,,,,,,274.4305363339954,None,274.93083779199515,None,275.9313697919715,None,right,0.5404733340255916,276.4311400000006,None,None,None,None,2.263157894736842,2.894736842105263,300,-300,600,left,right,,LilyRun1,001,2021_Jul_21_0843,compare_lines,2021.1.4,60.322756790583384,
horizontal,0,0,0,0,15,3,63,0,,,,,,,,,,,,,276.9970654589706,None,277.4977379589691,None,278.49743129196577,None,down,0.8759335000067949,278.9987291249563,None,None,None,None,2.263157894736842,2.1052631578947367,300,-300,600,left,right,,LilyRun1,001,2021_Jul_21_0843,compare_lines,2021.1.4,60.322756790583384,
vertical,0,0,0,0,16,0,64,1,,,,,,,,,,,,,279.89707462495426,None,280.3973818339873,None,281.3973784589907,None,down,0.9601378749939613,281.89788862498244,None,None,None,None,2.263157894736842,1.4736842105263157,300,-300,600,left,right,,LilyRun1,001,2021_Jul_21_0843,compare_lines,2021.1.4,60.322756790583384,
horizontal,0,0,0,0,16,1,65,0,,,,,,,,,,,,,282.88041320897173,None,283.3810644999612,None,284.3807062089909,None,down,1.019639250007458,284.8812672919594,None,None,None,None,1.7894736842105263,1.7894736842105263,300,-300,600,right,left,,LilyRun1,001,2021_Jul_21_0843,compare_lines,2021.1.4,60.322756790583384,
diagonal2,0,0,0,0,16,2,66,3,,,,,,,,,,,,,285.9307155839633,None,286.43119066697545,None,287.42997804196784,None,down,0.9182549580000341,287.9313649999676,None,None,None,None,4.0,4.0,300,-300,600,right,left,,LilyRun1,001,2021_Jul_21_0843,compare_lines,2021.1.4,60.322756790583384,
diagonal1,0,0,0,0,16,3,67,2,,,,,,,,,,,,,288.88053612498334,None,289.3815742089646,None,290.38086770899827,None,left,0.7646291250130162,290.88077287498163,None,None,None,None,2.5789473684210527,1.0,300,-300,600,left,right,,LilyRun1,001,2021_Jul_21_0843,compare_lines,2021.1.4,60.322756790583384,
horizontal,0,0,0,0,17,0,68,0,,,,,,,,,,,,,291.66422745899763,None,292.1647057089722,None,293.16515549999895,None,right,0.8136706670047715,293.664886249986,None,None,None,None,3.6842105263157894,3.6842105263157894,300,-300,600,left,right,,LilyRun1,001,2021_Jul_21_0843,compare_lines,2021.1.4,60.322756790583384,
diagonal2,0,0,0,0,17,1,69,3,,,,,,,,,,,,,294.4976763749728,None,294.998058666999,None,295.99832387495553,None,down,1.2307804169831797,296.4978228749824,None,None,None,None,1.4736842105263157,1.631578947368421,300,-300,600,left,right,,LilyRun1,001,2021_Jul_21_0843,compare_lines,2021.1.4,60.322756790583384,
diagonal1,0,0,0,0,17,2,70,2,,,,,,,,,,,,,297.74761358398246,None,298.24795175000327,None,299.2476228339947,None,right,0.7433715420193039,299.7479888749658,None,None,None,None,1.7894736842105263,3.526315789473684,300,-300,600,right,left,,LilyRun1,001,2021_Jul_21_0843,compare_lines,2021.1.4,60.322756790583384,
vertical,0,0,0,0,17,3,71,1,,,,,,,,,,,,,300.5142118749791,None,301.0144877919811,None,302.01465479197213,None,down,1.0515047090011649,302.5148580419482,None,None,None,None,2.1052631578947367,2.1052631578947367,300,-300,600,left,right,,LilyRun1,001,2021_Jul_21_0843,compare_lines,2021.1.4,60.322756790583384,
diagonal2,0,0,0,0,18,0,72,3,,,,,,,,,,,,,303.59737899998436,None,304.0978799589793,None,305.0978966249968,None,right,0.7615512500051409,305.5980912919622,None,None,None,None,1.7894736842105263,3.8421052631578947,300,-300,600,left,right,,LilyRun1,001,2021_Jul_21_0843,compare_lines,2021.1.4,60.322756790583384,
diagonal1,0,0,0,0,18,1,73,2,,,,,,,,,,,,,306.3808462919551,None,306.88167158397846,None,307.88119533396093,None,right,0.8142114579677582,308.3814013749943,None,None,None,None,1.4736842105263157,3.3684210526315788,300,-300,600,left,right,,LilyRun1,001,2021_Jul_21_0843,compare_lines,2021.1.4,60.322756790583384,
horizontal,0,0,0,0,18,2,74,0,,,,,,,,,,,,,309.21447454195004,None,309.7145827089553,None,310.71463095897343,None,right,0.8537137500243261,311.2144978749566,None,None,None,None,3.052631578947368,3.052631578947368,300,-300,600,left,right,,LilyRun1,001,2021_Jul_21_0843,compare_lines,2021.1.4,60.322756790583384,
vertical,0,0,0,0,18,3,75,1,,,,,,,,,,,,,312.0982591249631,None,312.59751483396394,None,313.5980190419941,None,right,0.8181534999748692,314.09784529195167,None,None,None,None,1.0,3.2105263157894735,300,-300,600,right,left,,LilyRun1,001,2021_Jul_21_0843,compare_lines,2021.1.4,60.322756790583384,
vertical,0,0,0,0,19,0,76,1,,,,,,,,,,,,,314.9309738749871,None,315.4311593750026,None,316.4312310839887,None,right,0.8398349159979261,316.9308413749677,None,None,None,None,3.2105263157894735,3.526315789473684,300,-300,600,left,right,,LilyRun1,001,2021_Jul_21_0843,compare_lines,2021.1.4,60.322756790583384,
diagonal1,0,0,0,0,19,1,77,2,,,,,,,,,,,,,317.79766229196684,None,318.2977884169668,None,319.29729708394734,None,down,1.2251740419887938,319.7982617089874,None,None,None,None,1.7894736842105263,2.7368421052631575,300,-300,600,left,right,,LilyRun1,001,2021_Jul_21_0843,compare_lines,2021.1.4,60.322756790583384,
horizontal,0,0,0,0,19,2,78,0,,,,,,,,,,,,,321.04792641696986,None,321.5483376669581,None,322.5478001249721,None,down,1.078816790948622,323.0482154999627,None,None,None,None,1.631578947368421,1.631578947368421,300,-300,600,left,right,,LilyRun1,001,2021_Jul_21_0843,compare_lines,2021.1.4,60.322756790583384,
diagonal2,0,0,0,0,19,3,79,3,,,,,,,,,,,,,324.1476425419678,None,324.6481898339698,None,325.6484635419911,None,down,1.7333804999943823,326.1479136669659,None,None,None,None,3.2105263157894735,4.0,300,-300,600,right,left,,LilyRun1,001,2021_Jul_21_0843,compare_lines,2021.1.4,60.322756790583384,
diagonal1,0,0,0,0,20,0,80,2,,,,,,,,,,,,,327.89823837496806,None,328.398418124998,None,329.3979515839601,None,left,1.3586551659973338,329.89817691699136,None,None,None,None,2.894736842105263,2.7368421052631575,300,-300,600,right,left,,LilyRun1,001,2021_Jul_21_0843,compare_lines,2021.1.4,60.322756790583384,
horizontal,0,0,0,0,20,1,81,0,,,,,,,,,,,,,331.28139787499094,None,331.78155724995304,None,332.78147337498376,None,down,0.8137337499647401,333.2814647499472,None,None,None,None,2.7368421052631575,2.7368421052631575,300,-300,600,right,left,,LilyRun1,001,2021_Jul_21_0843,compare_lines,2021.1.4,60.322756790583384,
diagonal2,0,0,0,0,20,2,82,3,,,,,,,,,,,,,334.11443445895566,None,334.61555279197637,None,335.6150048339623,None,down,1.235481166979298,336.1147941669915,None,None,None,None,2.7368421052631575,2.7368421052631575,300,-300,600,left,right,,LilyRun1,001,2021_Jul_21_0843,compare_lines,2021.1.4,60.322756790583384,
vertical,0,0,0,0,20,3,83,1,,,,,,,,,,,,,337.3812284589512,None,337.8818267500028,None,338.88159804197494,None,down,0.8623868750291876,339.3812196669751,None,None,None,None,1.631578947368421,1.3157894736842106,300,-300,600,right,left,,LilyRun1,001,2021_Jul_21_0843,compare_lines,2021.1.4,60.322756790583384,
horizontal,0,0,0,0,21,0,84,0,,,,,,,,,,,,,340.2647279590019,None,340.7651009999681,None,341.7649323749938,None,right,0.7325699999928474,342.2650416669785,None,None,None,None,1.3157894736842106,3.3684210526315788,300,-300,600,left,right,,LilyRun1,001,2021_Jul_21_0843,compare_lines,2021.1.4,60.322756790583384,
diagonal1,0,0,0,0,21,1,85,2,,,,,,,,,,,,,343.014909083955,None,343.5145456669852,None,344.51498999999603,None,right,0.5540557079948485,345.01492279197555,None,None,None,None,1.0,3.8421052631578947,300,-300,600,left,right,,LilyRun1,001,2021_Jul_21_0843,compare_lines,2021.1.4,60.322756790583384,
diagonal2,0,0,0,0,21,2,86,3,,,,,,,,,,,,,345.5976740839542,None,346.09820099995704,None,347.0981433749548,None,down,1.0615064589655958,347.59918741695583,None,None,None,None,1.631578947368421,1.631578947368421,300,-300,600,left,right,,LilyRun1,001,2021_Jul_21_0843,compare_lines,2021.1.4,60.322756790583384,
vertical,0,0,0,0,21,3,87,1,,,,,,,,,,,,,348.6819789169822,None,349.1818183749565,None,350.1815499999793,None,left,0.5900490420171991,350.68104341696016,None,None,None,None,3.2105263157894735,2.1052631578947367,300,-300,600,left,right,,LilyRun1,001,2021_Jul_21_0843,compare_lines,2021.1.4,60.322756790583384,
diagonal1,0,0,0,0,22,0,88,2,,,,,,,,,,,,,351.29808020900236,None,351.7983717089519,None,352.79805487499107,None,right,1.0341171250329353,353.29808629199397,None,None,None,None,2.5789473684210527,3.526315789473684,300,-300,600,right,left,,LilyRun1,001,2021_Jul_21_0843,compare_lines,2021.1.4,60.322756790583384,
horizontal,0,0,0,0,22,1,89,0,,,,,,,,,,,,,354.34832824999467,None,354.84844479197636,None,355.8488125419826,None,right,0.780119624978397,356.34831612498965,None,None,None,None,1.1578947368421053,2.7368421052631575,300,-300,600,left,right,,LilyRun1,001,2021_Jul_21_0843,compare_lines,2021.1.4,60.322756790583384,
vertical,0,0,0,0,22,2,90,1,,,,,,,,,,,,,357.1483489999664,None,357.6483549589757,None,358.64871962496545,None,down,1.3507979169953614,359.1486993339495,None,None,None,None,1.0,2.1052631578947367,300,-300,600,right,left,,LilyRun1,001,2021_Jul_21_0843,compare_lines,2021.1.4,60.322756790583384,
diagonal2,0,0,0,0,22,3,91,3,,,,,,,,,,,,,360.53162599995267,None,361.0319989169948,None,362.0313357919804,None,left,0.6894417079747654,362.53169024997624,None,None,None,None,4.0,3.3684210526315788,300,-300,600,right,left,,LilyRun1,001,2021_Jul_21_0843,compare_lines,2021.1.4,60.322756790583384,
diagonal2,0,0,0,0,23,0,92,3,,,,,,,,,,,,,363.248065208958,None,363.74897716694977,None,364.74862112494884,None,right,1.1877895829966292,365.24849608395016,None,None,None,None,1.1578947368421053,1.9473684210526314,300,-300,600,left,right,,LilyRun1,001,2021_Jul_21_0843,compare_lines,2021.1.4,60.322756790583384,
horizontal,0,0,0,0,23,1,93,0,,,,,,,,,,,,,366.4652053339523,None,366.9653747919947,None,367.9647867499734,None,left,0.8428967910003848,368.46573899994837,None,None,None,None,2.894736842105263,1.9473684210526314,300,-300,600,right,left,,LilyRun1,001,2021_Jul_21_0843,compare_lines,2021.1.4,60.322756790583384,
vertical,0,0,0,0,23,2,94,1,,,,,,,,,,,,,369.3317139999708,None,369.83164804195985,None,370.83172029198613,None,right,0.6380957920337096,371.33155516698025,None,None,None,None,1.7894736842105263,3.3684210526315788,300,-300,600,right,left,,LilyRun1,001,2021_Jul_21_0843,compare_lines,2021.1.4,60.322756790583384,
diagonal1,0,0,0,0,23,3,95,2,,,,,,,,,,,,,371.9984091249644,None,372.4985522089992,None,373.498908333946,None,left,1.07948816701537,373.9986243749736,None,None,None,None,3.6842105263157894,1.9473684210526314,300,-300,600,right,left,,LilyRun1,001,2021_Jul_21_0843,compare_lines,2021.1.4,60.322756790583384,
diagonal2,0,0,0,0,24,0,96,3,,,,,,,,,,,,,375.0975959999487,None,375.5983959589503,None,376.5985790839768,None,left,1.2483223750023171,377.0986841249978,None,None,None,None,2.894736842105263,2.894736842105263,300,-300,600,right,left,,LilyRun1,001,2021_Jul_21_0843,compare_lines,2021.1.4,60.322756790583384,
vertical,0,0,0,0,24,1,97,1,,,,,,,,,,,,,378.36545766697964,None,378.8655954999849,None,379.8652326669544,None,down,0.8344464999972843,380.3652744999854,None,None,None,None,1.9473684210526314,1.4736842105263157,300,-300,600,right,left,,LilyRun1,001,2021_Jul_21_0843,compare_lines,2021.1.4,60.322756790583384,
diagonal1,0,0,0,0,24,2,98,2,,,,,,,,,,,,,381.21484041697113,None,381.71520174999023,None,382.71545016695745,None,down,1.4865529169910587,383.21539670898346,None,None,None,None,2.4210526315789473,2.5789473684210527,300,-300,600,right,left,,LilyRun1,001,2021_Jul_21_0843,compare_lines,2021.1.4,60.322756790583384,
horizontal,0,0,0,0,24,3,99,0,,,,,,,,,,,,,384.73340704198927,None,385.2484543339815,None,386.24842574994545,None,right,0.7765684169717133,386.7485162089579,None,None,None,None,3.2105263157894735,2.7368421052631575,300,-300,600,left,right,,LilyRun1,001,2021_Jul_21_0843,compare_lines,2021.1.4,60.322756790583384,
vertical,0,0,0,0,25,0,100,1,,,,,,,,,,,,,387.5484909169609,None,388.048309124948,None,389.0489255419816,None,down,2.7559846250223927,389.5488235419616,None,None,None,None,2.1052631578947367,1.631578947368421,300,-300,600,right,left,,LilyRun1,001,2021_Jul_21_0843,compare_lines,2021.1.4,60.322756790583384,
horizontal,0,0,0,0,25,1,101,0,,,,,,,,,,,,,392.333731666964,None,392.84863174997736,None,393.8485653749667,None,down,0.7372641670517623,394.34970624995185,None,None,None,None,3.526315789473684,2.894736842105263,300,-300,600,left,right,,LilyRun1,001,2021_Jul_21_0843,compare_lines,2021.1.4,60.322756790583384,
diagonal2,0,0,0,0,25,2,102,3,,,,,,,,,,,,,395.11486516695004,None,395.6158304999699,None,396.61572945897933,None,down,0.721818916965276,397.1155376669485,None,None,None,None,1.9473684210526314,2.263157894736842,300,-300,600,left,right,,LilyRun1,001,2021_Jul_21_0843,compare_lines,2021.1.4,60.322756790583384,
diagonal1,0,0,0,0,25,3,103,2,,,,,,,,,,,,,397.86522941698786,None,398.36549220897723,None,399.3657439589733,None,down,0.7465201249578968,399.8662143749534,None,None,None,None,1.1578947368421053,4.0,300,-300,600,left,right,,LilyRun1,001,2021_Jul_21_0843,compare_lines,2021.1.4,60.322756790583384,
diagonal1,0,0,0,0,26,0,104,2,,,,,,,,,,,,,400.6314347089501,None,401.13253374997294,None,402.13249383395305,None,down,0.7719398339977488,402.63225658395095,None,None,None,None,4.0,2.7368421052631575,300,-300,600,left,right,,LilyRun1,001,2021_Jul_21_0843,compare_lines,2021.1.4,60.322756790583384,
horizontal,0,0,0,0,26,1,105,0,,,,,,,,,,,,,403.4323577499599,None,403.9321837499738,None,404.9320838749991,None,down,0.62939312501112,405.4325497499667,None,None,None,None,3.2105263157894735,2.263157894736842,300,-300,600,left,right,,LilyRun1,001,2021_Jul_21_0843,compare_lines,2021.1.4,60.322756790583384,
diagonal2,0,0,0,0,26,2,106,3,,,,,,,,,,,,,406.0818058339646,None,406.58224512496963,None,407.58201870898483,None,down,0.5961077910033055,408.0829189589713,None,None,None,None,3.3684210526315788,3.3684210526315788,300,-300,600,right,left,,LilyRun1,001,2021_Jul_21_0843,compare_lines,2021.1.4,60.322756790583384,
vertical,0,0,0,0,26,3,107,1,,,,,,,,,,,,,408.6985996249714,None,409.19924937497126,None,410.1989486249513,None,left,0.7662882920121774,410.69896224996774,None,None,None,None,2.4210526315789473,1.7894736842105263,300,-300,600,right,left,,LilyRun1,001,2021_Jul_21_0843,compare_lines,2021.1.4,60.322756790583384,
diagonal1,0,0,0,0,27,0,108,2,,,,,,,,,,,,,411.4817741669831,None,411.98315979196923,None,412.98209495894844,None,down,1.037804750027135,413.48235229199054,None,None,None,None,2.4210526315789473,2.4210526315789473,300,-300,600,left,right,,LilyRun1,001,2021_Jul_21_0843,compare_lines,2021.1.4,60.322756790583384,
diagonal2,0,0,0,0,27,1,109,3,,,,,,,,,,,,,414.5490842089639,None,415.04940333397826,None,416.0489520839765,None,left,0.7450307499966584,416.5489627919742,None,None,None,None,3.6842105263157894,3.6842105263157894,300,-300,600,right,left,,LilyRun1,001,2021_Jul_21_0843,compare_lines,2021.1.4,60.322756790583384,
vertical,0,0,0,0,27,2,110,1,,,,,,,,,,,,,417.31519904197194,None,417.81577220896725,None,418.81535562494537,None,left,0.7771233749808744,419.31569029198727,None,None,None,None,3.3684210526315788,2.4210526315789473,300,-300,600,right,left,,LilyRun1,001,2021_Jul_21_0843,compare_lines,2021.1.4,60.322756790583384,
horizontal,0,0,0,0,27,3,111,0,,,,,,,,,,,,,420.11523716698866,None,420.61595416697673,None,421.6157952089561,None,left,0.8392815830302425,422.1160727919778,None,None,None,None,3.8421052631578947,3.8421052631578947,300,-300,600,right,left,,LilyRun1,001,2021_Jul_21_0843,compare_lines,2021.1.4,60.322756790583384,
diagonal2,0,0,0,0,28,0,112,3,,,,,,,,,,,,,422.9822791669867,None,423.4822494999971,None,424.4820484169759,None,down,0.7092773329932243,424.98232141695917,None,None,None,None,2.894736842105263,2.894736842105263,300,-300,600,left,right,,LilyRun1,001,2021_Jul_21_0843,compare_lines,2021.1.4,60.322756790583384,
diagonal1,0,0,0,0,28,1,113,2,,,,,,,,,,,,,425.7152243339806,None,426.21598491695477,None,427.2157505839714,None,right,1.4982935420121066,427.71579883398954,None,None,None,None,1.4736842105263157,3.8421052631578947,300,-300,600,left,right,,LilyRun1,001,2021_Jul_21_0843,compare_lines,2021.1.4,60.322756790583384,
vertical,0,0,0,0,28,2,114,1,,,,,,,,,,,,,429.23204474995146,None,429.732220083999,None,430.73244037496625,None,right,0.5578409169684164,431.2326160419616,None,None,None,None,1.631578947368421,3.526315789473684,300,-300,600,right,left,,LilyRun1,001,2021_Jul_21_0843,compare_lines,2021.1.4,60.322756790583384,
horizontal,0,0,0,0,28,3,115,0,,,,,,,,,,,,,431.8151919999509,None,432.3164124999894,None,433.3156355419778,None,left,0.817688042006921,433.81657087500207,None,None,None,None,3.3684210526315788,3.2105263157894735,300,-300,600,right,left,,LilyRun1,001,2021_Jul_21_0843,compare_lines,2021.1.4,60.322756790583384,
vertical,0,0,0,0,29,0,116,1,,,,,,,,,,,,,434.665009291959,None,435.1655362089514,None,436.16649537498597,None,down,1.032564082997851,436.6659009999712,None,None,None,None,3.3684210526315788,3.6842105263157894,300,-300,600,right,left,,LilyRun1,001,2021_Jul_21_0843,compare_lines,2021.1.4,60.322756790583384,
diagonal2,0,0,0,0,29,1,117,3,,,,,,,,,,,,,437.7153625419596,None,438.2160026669735,None,439.21557908394607,None,down,1.4097879999899305,439.7164312090026,None,None,None,None,1.0,1.0,300,-300,600,right,left,,LilyRun1,001,2021_Jul_21_0843,compare_lines,2021.1.4,60.322756790583384,
diagonal1,0,0,0,0,29,2,118,2,,,,,,,,,,,,,441.1494883339619,None,441.64953558397247,None,442.64930920896586,None,down,0.8865239580045454,443.1490336669958,None,None,None,None,1.7894736842105263,1.7894736842105263,300,-300,600,right,left,,LilyRun1,001,2021_Jul_21_0843,compare_lines,2021.1.4,60.322756790583384,
horizontal,0,0,0,0,29,3,119,0,,,,,,,,,,,,,444.0659208339639,None,444.5663915419718,None,445.5659826249466,None,right,0.8204790420131758,446.06595333397854,None,None,None,None,1.4736842105263157,3.526315789473684,300,-300,600,right,left,,LilyRun1,001,2021_Jul_21_0843,compare_lines,2021.1.4,60.322756790583384,
horizontal,0,0,0,0,30,0,120,0,,,,,,,,,,,,,446.9157428749604,None,447.41609891696135,None,448.4159121249686,None,right,0.8896384999970905,448.9167104999651,None,None,None,None,1.7894736842105263,1.7894736842105263,300,-300,600,left,right,,LilyRun1,001,2021_Jul_21_0843,compare_lines,2021.1.4,60.322756790583384,
diagonal2,0,0,0,0,30,1,121,3,,,,,,,,,,,,,449.8322285839822,None,450.3331840839819,None,451.33233216695953,None,down,0.9527135830139741,451.83295254199766,None,None,None,None,1.0,1.7894736842105263,300,-300,600,left,right,,LilyRun1,001,2021_Jul_21_0843,compare_lines,2021.1.4,60.322756790583384,
diagonal1,0,0,0,0,30,2,122,2,,,,,,,,,,,,,452.8154448749847,None,453.31680533394683,None,454.3159916669829,None,right,1.0149571250076406,454.81609104195377,None,None,None,None,3.6842105263157894,3.8421052631578947,300,-300,600,left,right,,LilyRun1,001,2021_Jul_21_0843,compare_lines,2021.1.4,60.322756790583384,
vertical,0,0,0,0,30,3,123,1,,,,,,,,,,,,,455.84986804198707,None,456.3496522089699,None,457.3491960839601,None,right,0.9320326670422219,457.84924941696227,None,None,None,None,1.4736842105263157,2.5789473684210527,300,-300,600,left,right,,LilyRun1,001,2021_Jul_21_0843,compare_lines,2021.1.4,60.322756790583384,
diagonal2,0,0,0,0,31,0,124,3,,,,,,,,,,,,,458.7990752089536,None,459.2998119169497,None,460.29911387496395,None,down,0.8803457910544239,460.799246791983,None,None,None,None,1.1578947368421053,1.1578947368421053,300,-300,600,left,right,,LilyRun1,001,2021_Jul_21_0843,compare_lines,2021.1.4,60.322756790583384,
horizontal,0,0,0,0,31,1,125,0,,,,,,,,,,,,,461.69923149998067,None,462.19955833395943,None,463.19955837499583,None,right,0.6079062500502914,463.70023141696583,None,None,None,None,2.4210526315789473,2.894736842105263,300,-300,600,left,right,,LilyRun1,001,2021_Jul_21_0843,compare_lines,2021.1.4,60.322756790583384,
vertical,0,0,0,0,31,2,126,1,,,,,,,,,,,,,464.332306999946,None,464.8326854999759,None,465.8329454169725,None,down,0.5974569170502946,466.33267295896076,None,None,None,None,3.526315789473684,3.6842105263157894,300,-300,600,left,right,,LilyRun1,001,2021_Jul_21_0843,compare_lines,2021.1.4,60.322756790583384,
diagonal1,0,0,0,0,31,3,127,2,,,,,,,,,,,,,466.94948924996424,None,467.4498929999536,None,468.44992045895196,None,down,0.6436676669982262,468.9502153749927,None,None,None,None,1.0,1.0,300,-300,600,left,right,,LilyRun1,001,2021_Jul_21_0843,compare_lines,2021.1.4,60.322756790583384,
vertical,0,0,0,0,32,0,128,1,,,,,,,,,,,,,469.61585570895113,None,470.11614258395275,None,471.1163809169666,None,left,0.8453116249875166,471.61668654199457,None,None,None,None,3.3684210526315788,2.263157894736842,300,-300,600,left,right,,LilyRun1,001,2021_Jul_21_0843,compare_lines,2021.1.4,60.322756790583384,
horizontal,0,0,0,0,32,1,129,0,,,,,,,,,,,,,472.4827790839481,None,472.9835167499841,None,473.9827168749762,None,down,0.8667877499829046,474.4827683339827,None,None,None,None,1.3157894736842106,1.7894736842105263,300,-300,600,right,left,,LilyRun1,001,2021_Jul_21_0843,compare_lines,2021.1.4,60.322756790583384,
diagonal1,0,0,0,0,32,2,130,2,,,,,,,,,,,,,475.3663859589724,None,475.86568599997554,None,476.8660314589506,None,down,1.0105864579672925,477.36620083398884,None,None,None,None,2.4210526315789473,2.4210526315789473,300,-300,600,right,left,,LilyRun1,001,2021_Jul_21_0843,compare_lines,2021.1.4,60.322756790583384,
diagonal2,0,0,0,0,32,3,131,3,,,,,,,,,,,,,478.3997579169809,None,478.8993412499549,None,479.8996846249793,None,left,1.2615810409770347,480.39981345896376,None,None,None,None,3.052631578947368,1.3157894736842106,300,-300,600,right,left,,LilyRun1,001,2021_Jul_21_0843,compare_lines,2021.1.4,60.322756790583384,
vertical,0,0,0,0,33,0,132,1,,,,,,,,,,,,,481.6833531250013,None,482.18335633398965,None,483.18307274999097,None,left,0.6769569579628296,483.68379437498515,None,None,None,None,2.894736842105263,2.1052631578947367,300,-300,600,right,left,,LilyRun1,001,2021_Jul_21_0843,compare_lines,2021.1.4,60.322756790583384,
diagonal1,0,0,0,0,33,1,133,2,,,,,,,,,,,,,484.3828887089621,None,484.8832528339699,None,485.88293933396926,None,left,1.1090641249902546,486.38330979197053,None,None,None,None,2.4210526315789473,1.0,300,-300,600,right,left,,LilyRun1,001,2021_Jul_21_0843,compare_lines,2021.1.4,60.322756790583384,
diagonal2,0,0,0,0,33,2,134,3,,,,,,,,,,,,,487.51584370899945,None,488.016707999981,None,489.01603133400204,None,down,0.8188167089829221,489.5163998339558,None,None,None,None,2.1052631578947367,1.3157894736842106,300,-300,600,right,left,,LilyRun1,001,2021_Jul_21_0843,compare_lines,2021.1.4,60.322756790583384,
horizontal,0,0,0,0,33,3,135,0,,,,,,,,,,,,,490.3657823749818,None,490.8662907089456,None,491.86709883395815,None,down,0.7942842080374248,492.36658887495287,None,None,None,None,4.0,4.0,300,-300,600,left,right,,LilyRun1,001,2021_Jul_21_0843,compare_lines,2021.1.4,60.322756790583384,
vertical,0,0,0,0,34,0,136,1,,,,,,,,,,,,,493.1826635839534,None,493.6829132089624,None,494.68294787500054,None,down,0.7104641660116613,495.1831355839968,None,None,None,None,3.2105263157894735,3.2105263157894735,300,-300,600,right,left,,LilyRun1,001,2021_Jul_21_0843,compare_lines,2021.1.4,60.322756790583384,
diagonal1,0,0,0,0,34,1,137,2,,,,,,,,,,,,,495.9157086669584,None,496.4172901669517,None,497.416971833969,None,down,1.9865420410060324,497.9166736669722,None,None,None,None,1.631578947368421,2.263157894736842,300,-300,600,left,right,,LilyRun1,001,2021_Jul_21_0843,compare_lines,2021.1.4,60.322756790583384,
horizontal,0,0,0,0,34,2,138,0,,,,,,,,,,,,,499.93416045897175,None,500.43320979195414,None,501.4336958339554,None,down,0.7848315419978462,501.93309474998387,None,None,None,None,3.3684210526315788,2.5789473684210527,300,-300,600,left,right,,LilyRun1,001,2021_Jul_21_0843,compare_lines,2021.1.4,60.322756790583384,
diagonal2,0,0,0,0,34,3,139,3,,,,,,,,,,,,,502.7328659169725,None,503.232782416977,None,504.23359129199525,None,left,0.6428656249772757,504.7335872919648,None,None,None,None,3.2105263157894735,1.3157894736842106,300,-300,600,left,right,,LilyRun1,001,2021_Jul_21_0843,compare_lines,2021.1.4,60.322756790583384,
horizontal,0,0,0,0,35,0,140,0,,,,,,,,,,,,,505.39953920897096,None,505.89986354199937,None,506.90006491699023,None,down,0.8074597499798983,507.40040545898955,None,None,None,None,1.4736842105263157,1.7894736842105263,300,-300,600,right,left,,LilyRun1,001,2021_Jul_21_0843,compare_lines,2021.1.4,60.322756790583384,
diagonal1,0,0,0,0,35,1,141,2,,,,,,,,,,,,,508.23301349999383,None,508.7339599169791,None,509.73323795897886,None,down,0.673222084005829,510.2334879169939,None,None,None,None,2.894736842105263,2.894736842105263,300,-300,600,right,left,,LilyRun1,001,2021_Jul_21_0843,compare_lines,2021.1.4,60.322756790583384,
vertical,0,0,0,0,35,2,142,1,,,,,,,,,,,,,510.93303766695317,None,511.43296333396574,None,512.434046499955,None,left,0.666795875004027,512.9334065419971,None,None,None,None,3.8421052631578947,1.1578947368421053,300,-300,600,right,left,,LilyRun1,001,2021_Jul_21_0843,compare_lines,2021.1.4,60.322756790583384,
diagonal2,0,0,0,0,35,3,143,3,,,,,,,,,,,,,513.6163144169841,None,514.1165737499832,None,515.1164884999744,None,down,0.7225655839429237,515.61633845896,None,None,None,None,1.7894736842105263,1.7894736842105263,300,-300,600,right,left,,LilyRun1,001,2021_Jul_21_0843,compare_lines,2021.1.4,60.322756790583384,
diagonal2,0,0,0,0,36,0,144,3,,,,,,,,,,,,,516.3662542919628,None,516.8668310839566,None,517.8665883339709,None,left,0.6106632919982076,518.3666880839737,None,None,None,None,3.8421052631578947,3.052631578947368,300,-300,600,right,left,,LilyRun1,001,2021_Jul_21_0843,compare_lines,2021.1.4,60.322756790583384,
diagonal1,0,0,0,0,36,1,145,2,,,,,,,,,,,,,518.9997483339976,None,519.5000617089681,None,520.4999840419623,None,down,0.7369410840328783,521.0000902089523,None,None,None,None,3.8421052631578947,3.8421052631578947,300,-300,600,right,left,,LilyRun1,001,2021_Jul_21_0843,compare_lines,2021.1.4,60.322756790583384,
vertical,0,0,0,0,36,2,146,1,,,,,,,,,,,,,521.7665152089903,None,522.2674425839796,None,523.2668644999503,None,down,0.7372889999533072,523.7670191669604,None,None,None,None,2.7368421052631575,2.7368421052631575,300,-300,600,right,left,,LilyRun1,001,2021_Jul_21_0843,compare_lines,2021.1.4,60.322756790583384,
horizontal,0,0,0,0,36,3,147,0,,,,,,,,,,,,,524.5335178749519,None,525.0337895419798,None,526.033493875002,None,right,0.6245543339755386,526.5340840419522,None,None,None,None,1.1578947368421053,3.3684210526315788,300,-300,600,left,right,,LilyRun1,001,2021_Jul_21_0843,compare_lines,2021.1.4,60.322756790583384,
diagonal1,0,0,0,0,37,0,148,2,,,,,,,,,,,,,527.182975624979,None,527.6845493749715,None,528.700377125002,None,right,1.0183700830093585,529.2005750839598,None,None,None,None,1.7894736842105263,1.7894736842105263,300,-300,600,right,left,,LilyRun1,001,2021_Jul_21_0843,compare_lines,2021.1.4,60.322756790583384,
diagonal2,0,0,0,0,37,1,149,3,,,,,,,,,,,,,530.2496693339781,None,530.7505412499886,None,531.7502087919856,None,down,0.8883074580226094,532.2503219999489,None,None,None,None,2.263157894736842,2.263157894736842,300,-300,600,right,left,,LilyRun1,001,2021_Jul_21_0843,compare_lines,2021.1.4,60.322756790583384,
horizontal,0,0,0,0,37,2,150,0,,,,,,,,,,,,,533.166870541987,None,533.6673396249535,None,534.6668105839635,None,down,0.6469442499801517,535.166777958977,None,None,None,None,2.1052631578947367,1.9473684210526314,300,-300,600,left,right,,LilyRun1,001,2021_Jul_21_0843,compare_lines,2021.1.4,60.322756790583384,
vertical,0,0,0,0,37,3,151,1,,,,,,,,,,,,,535.8332634169492,None,536.3339260419598,None,537.3341262089671,None,right,0.7555351250339299,537.8344982089475,None,None,None,None,2.894736842105263,2.894736842105263,300,-300,600,left,right,,LilyRun1,001,2021_Jul_21_0843,compare_lines,2021.1.4,60.322756790583384,
diagonal1,0,0,0,0,38,0,152,2,,,,,,,,,,,,,538.6164603749639,None,539.1172757089953,None,540.1170302919927,None,left,0.7985619169776328,540.61677504197,None,None,None,None,3.526315789473684,1.3157894736842106,300,-300,600,left,right,,LilyRun1,001,2021_Jul_21_0843,compare_lines,2021.1.4,60.322756790583384,
diagonal2,0,0,0,0,38,1,153,3,,,,,,,,,,,,,541.4331731249695,None,541.9338953749975,None,542.9333374169655,None,down,1.0475615420145914,543.4337134999805,None,None,None,None,2.263157894736842,1.1578947368421053,300,-300,600,left,right,,LilyRun1,001,2021_Jul_21_0843,compare_lines,2021.1.4,60.322756790583384,
horizontal,0,0,0,0,38,2,154,0,,,,,,,,,,,,,544.499681583955,None,545.000049833965,None,546.0008773339796,None,left,0.5724621670087799,546.5008418749785,None,None,None,None,3.8421052631578947,2.4210526315789473,300,-300,600,right,left,,LilyRun1,001,2021_Jul_21_0843,compare_lines,2021.1.4,60.322756790583384,
vertical,0,0,0,0,38,3,155,1,,,,,,,,,,,,,547.0998498749686,None,547.6001339170034,None,548.6004920839914,None,left,0.6603309170459397,549.1010149589856,None,None,None,None,3.2105263157894735,1.7894736842105263,300,-300,600,right,left,,LilyRun1,001,2021_Jul_21_0843,compare_lines,2021.1.4,60.322756790583384,
horizontal,0,0,0,0,39,0,156,0,,,,,,,,,,,,,549.7831115839654,None,550.28352704196,None,551.2841064999811,None,down,1.2175951250246726,551.783287749975,None,None,None,None,3.6842105263157894,3.6842105263157894,300,-300,600,right,left,,LilyRun1,001,2021_Jul_21_0843,compare_lines,2021.1.4,60.322756790583384,
diagonal2,0,0,0,0,39,1,157,3,,,,,,,,,,,,,553.0333045419538,None,553.5334373749793,None,554.5337443749886,None,right,0.6645399170229211,555.0336886669975,None,None,None,None,1.0,3.3684210526315788,300,-300,600,right,left,,LilyRun1,001,2021_Jul_21_0843,compare_lines,2021.1.4,60.322756790583384,
vertical,0,0,0,0,39,2,158,1,,,,,,,,,,,,,555.7160179169732,None,556.2172997919843,None,557.2175963339978,None,left,0.8920520829851739,557.7176074169693,None,None,None,None,2.4210526315789473,1.9473684210526314,300,-300,600,right,left,,LilyRun1,001,2021_Jul_21_0843,compare_lines,2021.1.4,60.322756790583384,
diagonal1,0,0,0,0,39,3,159,2,,,,,,,,,,,,,558.6337059999933,None,559.1331325419596,None,560.1335604999913,None,down,0.8366356659680605,560.6343183749705,None,None,None,None,1.7894736842105263,1.631578947368421,300,-300,600,right,left,,LilyRun1,001,2021_Jul_21_0843,compare_lines,2021.1.4,60.322756790583384,
diagonal1,0,0,0,0,40,0,160,2,,,,,,,,,,,,,561.5002274999861,None,562.0004408339737,None,563.0006967499503,None,down,0.8590749999857508,563.5008832919993,None,None,None,None,1.631578947368421,1.631578947368421,300,-300,600,right,left,,LilyRun1,001,2021_Jul_21_0843,compare_lines,2021.1.4,60.322756790583384,
horizontal,0,0,0,0,40,1,161,0,,,,,,,,,,,,,564.3837942919927,None,564.8841555839754,None,565.8843938749633,None,down,0.615662208001595,566.3843748339568,None,None,None,None,2.263157894736842,1.7894736842105263,300,-300,600,left,right,,LilyRun1,001,2021_Jul_21_0843,compare_lines,2021.1.4,60.322756790583384,
diagonal2,0,0,0,0,40,2,162,3,,,,,,,,,,,,,567.0168793339981,None,567.5171529999934,None,568.5174493339728,None,down,0.7877940830076113,569.0172747499892,None,None,None,None,1.631578947368421,1.0,300,-300,600,right,left,,LilyRun1,001,2021_Jul_21_0843,compare_lines,2021.1.4,60.322756790583384,
vertical,0,0,0,0,40,3,163,1,,,,,,,,,,,,,569.8336002089782,None,570.334717583959,None,571.3337565419497,None,left,0.7147834590286948,571.8341359589831,None,None,None,None,4.0,4.0,300,-300,600,right,left,,LilyRun1,001,2021_Jul_21_0843,compare_lines,2021.1.4,60.322756790583384,
diagonal2,0,0,0,0,41,0,164,3,,,,,,,,,,,,,572.5671340419794,None,573.0676322499639,None,574.0670449589961,None,down,0.8406257500173524,574.5674186669639,None,None,None,None,1.3157894736842106,1.3157894736842106,300,-300,600,left,right,,LilyRun1,001,2021_Jul_21_0843,compare_lines,2021.1.4,60.322756790583384,
horizontal,0,0,0,0,41,1,165,0,,,,,,,,,,,,,575.4335434999666,None,575.9335339999525,None,576.9340935839573,None,right,0.6695169169688597,577.4340420419467,None,None,None,None,3.526315789473684,3.526315789473684,300,-300,600,right,left,,LilyRun1,001,2021_Jul_21_0843,compare_lines,2021.1.4,60.322756790583384,
diagonal1,0,0,0,0,41,2,166,2,,,,,,,,,,,,,578.1335209590034,None,578.6348654589965,None,579.6337131249602,None,down,1.4944915000232868,580.1341703339713,None,None,None,None,1.9473684210526314,1.9473684210526314,300,-300,600,left,right,,LilyRun1,001,2021_Jul_21_0843,compare_lines,2021.1.4,60.322756790583384,
vertical,0,0,0,0,41,3,167,1,,,,,,,,,,,,,581.6512826669496,None,582.1510525419726,None,583.1509397089831,None,left,0.5915356249897741,583.6510948749492,None,None,None,None,2.4210526315789473,1.1578947368421053,300,-300,600,right,left,,LilyRun1,001,2021_Jul_21_0843,compare_lines,2021.1.4,60.322756790583384,
diagonal1,0,0,0,0,42,0,168,2,,,,,,,,,,,,,584.2667444589897,None,584.767228541954,None,585.7676902089734,None,down,0.7714442089782096,586.2676922499668,None,None,None,None,2.1052631578947367,3.526315789473684,300,-300,600,right,left,,LilyRun1,001,2021_Jul_21_0843,compare_lines,2021.1.4,60.322756790583384,
vertical,0,0,0,0,42,1,169,1,,,,,,,,,,,,,587.0666164999711,None,587.5670824169647,None,588.5672792499536,None,left,0.969626874953974,589.067464416963,None,None,None,None,3.3684210526315788,1.631578947368421,300,-300,600,left,right,,LilyRun1,001,2021_Jul_21_0843,compare_lines,2021.1.4,60.322756790583384,
diagonal2,0,0,0,0,42,2,170,3,,,,,,,,,,,,,590.0682788749691,None,590.5679547089967,None,591.567731166957,None,down,0.6269145000260323,592.0680481669842,None,None,None,None,3.526315789473684,3.052631578947368,300,-300,600,left,right,,LilyRun1,001,2021_Jul_21_0843,compare_lines,2021.1.4,60.322756790583384,
horizontal,0,0,0,0,42,3,171,0,,,,,,,,,,,,,592.7175997089944,None,593.2175246249535,None,594.2178597499733,None,down,0.8085309579619206,594.7178424999584,None,None,None,None,3.526315789473684,3.526315789473684,300,-300,600,left,right,,LilyRun1,001,2021_Jul_21_0843,compare_lines,2021.1.4,60.322756790583384,
diagonal1,0,0,0,0,43,0,172,2,,,,,,,,,,,,,595.5505882499856,None,596.0515309589682,None,597.0510909999721,None,left,0.5140632080147043,597.5509096669848,None,None,None,None,4.0,2.1052631578947367,300,-300,600,right,left,,LilyRun1,001,2021_Jul_21_0843,compare_lines,2021.1.4,60.322756790583384,
vertical,0,0,0,0,43,1,173,1,,,,,,,,,,,,,598.0839236250031,None,598.5840987089905,None,599.584788749984,None,down,1.1100227080169134,600.0846330839559,None,None,None,None,3.052631578947368,4.0,300,-300,600,right,left,,LilyRun1,001,2021_Jul_21_0843,compare_lines,2021.1.4,60.322756790583384,
diagonal2,0,0,0,0,43,2,174,3,,,,,,,,,,,,,601.2177139999694,None,601.7177977089887,None,602.7174311249983,None,right,0.44475541601423174,603.2177482499974,None,None,None,None,1.4736842105263157,3.6842105263157894,300,-300,600,left,right,,LilyRun1,001,2021_Jul_21_0843,compare_lines,2021.1.4,60.322756790583384,
horizontal,0,0,0,0,43,3,175,0,,,,,,,,,,,,,603.6843176249531,None,604.1847212499706,None,605.1844084589975,None,down,0.7144687919644639,605.6843279589666,None,None,None,None,3.8421052631578947,2.894736842105263,300,-300,600,right,left,,LilyRun1,001,2021_Jul_21_0843,compare_lines,2021.1.4,60.322756790583384,
horizontal,0,0,0,0,44,0,176,0,,,,,,,,,,,,,606.4171061669476,None,606.9178748339764,None,607.9178107089829,None,down,0.8855727079790086,608.4182865420007,None,None,None,None,2.263157894736842,2.263157894736842,300,-300,600,right,left,,LilyRun1,001,2021_Jul_21_0843,compare_lines,2021.1.4,60.322756790583384,
diagonal2,0,0,0,0,44,1,177,3,,,,,,,,,,,,,609.3336220839992,None,609.8342309999862,None,610.8344034589827,None,right,0.7056722089764662,611.334232958965,None,None,None,None,1.9473684210526314,1.9473684210526314,300,-300,600,left,right,,LilyRun1,001,2021_Jul_21_0843,compare_lines,2021.1.4,60.322756790583384,
diagonal1,0,0,0,0,44,2,178,2,,,,,,,,,,,,,612.0671659169602,None,612.56755883398,None,613.5679908339516,None,down,0.8745637920219451,614.0676280839834,None,None,None,None,3.2105263157894735,3.052631578947368,300,-300,600,right,left,,LilyRun1,001,2021_Jul_21_0843,compare_lines,2021.1.4,60.322756790583384,
vertical,0,0,0,0,44,3,179,1,,,,,,,,,,,,,614.9673825419741,None,615.4678007499897,None,616.4676500419737,None,left,0.6918469590018503,616.9677521249978,None,None,None,None,3.6842105263157894,1.0,300,-300,600,right,left,,LilyRun1,001,2021_Jul_21_0843,compare_lines,2021.1.4,60.322756790583384,
diagonal1,0,0,0,0,45,0,180,2,,,,,,,,,,,,,617.6836175839999,None,618.1845924999798,None,619.1846092919586,None,left,0.9933740420383401,619.6850741249509,None,None,None,None,4.0,1.4736842105263157,300,-300,600,left,right,,LilyRun1,001,2021_Jul_21_0843,compare_lines,2021.1.4,60.322756790583384,
horizontal,0,0,0,0,45,1,181,0,,,,,,,,,,,,,620.7015092919464,None,621.2012774169561,None,622.2015965839964,None,right,0.6048800839926116,622.700776416983,None,None,None,None,2.4210526315789473,3.6842105263157894,300,-300,600,left,right,,LilyRun1,001,2021_Jul_21_0843,compare_lines,2021.1.4,60.322756790583384,
vertical,0,0,0,0,45,2,182,1,,,,,,,,,,,,,623.3341173339868,None,623.8345832089544,None,624.8346370839863,None,left,0.5697118330281228,625.3345671669813,None,None,None,None,3.6842105263157894,1.1578947368421053,300,-300,600,left,right,,LilyRun1,001,2021_Jul_21_0843,compare_lines,2021.1.4,60.322756790583384,
diagonal2,0,0,0,0,45,3,183,3,,,,,,,,,,,,,625.9339826249634,None,626.4343510419712,None,627.4345805839985,None,down,1.0552211250178516,627.9348014999996,None,None,None,None,1.9473684210526314,1.7894736842105263,300,-300,600,right,left,,LilyRun1,001,2021_Jul_21_0843,compare_lines,2021.1.4,60.322756790583384,
diagonal1,0,0,0,0,46,0,184,2,,,,,,,,,,,,,629.0173568339669,None,629.5180410419707,None,630.5188264169847,None,right,0.7475160000030883,631.0184680839884,None,None,None,None,4.0,3.8421052631578947,300,-300,600,left,right,,LilyRun1,001,2021_Jul_21_0843,compare_lines,2021.1.4,60.322756790583384,
diagonal2,0,0,0,0,46,1,185,3,,,,,,,,,,,,,631.784469999955,None,632.2851543749566,None,633.285278958967,None,right,0.5730447090463713,633.7844793749973,None,None,None,None,1.631578947368421,3.2105263157894735,300,-300,600,right,left,,LilyRun1,001,2021_Jul_21_0843,compare_lines,2021.1.4,60.322756790583384,
vertical,0,0,0,0,46,2,186,1,,,,,,,,,,,,,634.3844668749953,None,634.8851157499594,None,635.8847721249913,None,right,1.3040504590026103,636.3852656249655,None,None,None,None,2.1052631578947367,2.1052631578947367,300,-300,600,right,left,,LilyRun1,001,2021_Jul_21_0843,compare_lines,2021.1.4,60.322756790583384,
horizontal,0,0,0,0,46,3,187,0,,,,,,,,,,,,,637.7182627499569,None,638.2186244169716,None,639.2188611669699,None,down,0.8923967499868013,639.7181106669595,None,None,None,None,2.263157894736842,2.263157894736842,300,-300,600,right,left,,LilyRun1,001,2021_Jul_21_0843,compare_lines,2021.1.4,60.322756790583384,
diagonal1,0,0,0,0,47,0,188,2,,,,,,,,,,,,,640.6341718749609,None,641.1354758339585,None,642.1512320839684,None,down,0.9863654170185328,642.6516752919997,None,None,None,None,2.4210526315789473,2.4210526315789473,300,-300,600,right,left,,LilyRun1,001,2021_Jul_21_0843,compare_lines,2021.1.4,60.322756790583384,
horizontal,0,0,0,0,47,1,189,0,,,,,,,,,,,,,643.6679104169598,None,644.1679263339611,None,645.168406791985,None,right,1.3266442919848487,645.6687890419853,None,None,None,None,1.631578947368421,2.5789473684210527,300,-300,600,left,right,,LilyRun1,001,2021_Jul_21_0843,compare_lines,2021.1.4,60.322756790583384,
diagonal2,0,0,0,0,47,2,190,3,,,,,,,,,,,,,647.018437791965,None,647.518452999997,None,648.5181874169502,None,down,3.6113209999748506,649.0182944169501,None,None,None,None,3.052631578947368,2.1052631578947367,300,-300,600,right,left,,LilyRun1,001,2021_Jul_21_0843,compare_lines,2021.1.4,60.322756790583384,
vertical,0,0,0,0,47,3,191,1,,,,,,,,,,,,,652.653375874972,None,653.1521222500014,None,654.1521123339771,None,left,0.8116619159700349,654.6519864589791,None,None,None,None,2.5789473684210527,2.5789473684210527,300,-300,600,right,left,,LilyRun1,001,2021_Jul_21_0843,compare_lines,2021.1.4,60.322756790583384,
diagonal2,0,0,0,0,48,0,192,3,,,,,,,,,,,,,655.4845585000003,None,655.985227416968,None,656.9849015839864,None,down,0.9915687090251595,657.4849770839792,None,None,None,None,1.0,1.4736842105263157,300,-300,600,right,left,,LilyRun1,001,2021_Jul_21_0843,compare_lines,2021.1.4,60.322756790583384,
horizontal,0,0,0,0,48,1,193,0,,,,,,,,,,,,,658.5020289589884,None,659.0026673749671,None,660.0017960419646,None,right,0.6241034590057097,660.5020130419871,None,None,None,None,2.4210526315789473,3.526315789473684,300,-300,600,left,right,,LilyRun1,001,2021_Jul_21_0843,compare_lines,2021.1.4,60.322756790583384,
diagonal1,0,0,0,0,48,2,194,2,,,,,,,,,,,,,661.1511212089681,None,661.651943208999,None,662.6516237919568,None,down,0.7339042499661446,663.1518920839881,None,None,None,None,1.9473684210526314,1.9473684210526314,300,-300,600,left,right,,LilyRun1,001,2021_Jul_21_0843,compare_lines,2021.1.4,60.322756790583384,
vertical,0,0,0,0,48,3,195,1,,,,,,,,,,,,,663.9015568339964,None,664.4018329999526,None,665.4016514169634,None,left,1.009950709005352,665.9021410839632,None,None,None,None,3.526315789473684,2.263157894736842,300,-300,600,left,right,,LilyRun1,001,2021_Jul_21_0843,compare_lines,2021.1.4,60.322756790583384,
horizontal,0,0,0,0,49,0,196,0,,,,,,,,,,,,,666.9344962089672,None,667.4346663339529,None,668.4347781249671,None,left,0.6890505829942413,668.934838208952,None,None,None,None,3.6842105263157894,1.3157894736842106,300,-300,600,right,left,,LilyRun1,001,2021_Jul_21_0843,compare_lines,2021.1.4,60.322756790583384,
vertical,0,0,0,0,49,1,197,1,,,,,,,,,,,,,669.6509606249747,None,670.1520402499591,None,671.1517522089998,None,right,0.7250011250143871,671.651891958958,None,None,None,None,1.7894736842105263,2.5789473684210527,300,-300,600,right,left,,LilyRun1,001,2021_Jul_21_0843,compare_lines,2021.1.4,60.322756790583384,
diagonal1,0,0,0,0,49,2,198,2,,,,,,,,,,,,,672.4010292089661,None,672.9020161669469,None,673.9017998339841,None,right,0.6915504999924451,674.4018700839952,None,None,None,None,1.4736842105263157,3.2105263157894735,300,-300,600,right,left,,LilyRun1,001,2021_Jul_21_0843,compare_lines,2021.1.4,60.322756790583384,
diagonal2,0,0,0,0,49,3,199,3,,,,,,,,,,,,,675.1181181669817,None,675.618372500001,None,676.6179994169506,None,down,1.8235506670316681,677.1183857499855,None,None,None,None,1.0,1.0,300,-300,600,left,right,,LilyRun1,001,2021_Jul_21_0843,compare_lines,2021.1.4,60.322756790583384,
diagonal1,0,0,0,0,50,0,200,2,,,,,,,,,,,,,678.968931374955,None,679.4685280419653,None,680.4687799169915,None,left,0.4901240419712849,680.9685737089603,None,None,None,None,4.0,3.526315789473684,300,-300,600,right,left,,LilyRun1,001,2021_Jul_21_0843,compare_lines,2021.1.4,60.322756790583384,
vertical,0,0,0,0,50,1,201,1,,,,,,,,,,,,,681.4848891249858,None,681.9852686249651,None,682.9854419999756,None,down,1.2112959999940358,683.4846284169471,None,None,None,None,3.3684210526315788,3.526315789473684,300,-300,600,right,left,,LilyRun1,001,2021_Jul_21_0843,compare_lines,2021.1.4,60.322756790583384,
horizontal,0,0,0,0,50,2,202,0,,,,,,,,,,,,,684.7188349170028,None,685.2192007089616,None,686.2341771249776,None,down,0.54978470900096,686.7350717919762,None,None,None,None,1.9473684210526314,1.3157894736842106,300,-300,600,left,right,,LilyRun1,001,2021_Jul_21_0843,compare_lines,2021.1.4,60.322756790583384,
diagonal2,0,0,0,0,50,3,203,3,,,,,,,,,,,,,687.3012979169725,None,687.8019955839845,None,688.8017254169681,None,left,0.5474742079968564,689.302079666988,None,None,None,None,3.6842105263157894,2.1052631578947367,300,-300,600,right,left,,LilyRun1,001,2021_Jul_21_0843,compare_lines,2021.1.4,60.322756790583384,
diagonal2,0,0,0,0,51,0,204,3,,,,,,,,,,,,,689.8683910839609,None,690.3683460419998,None,691.368238416966,None,left,0.9008122080122121,691.8688452919596,None,None,None,None,3.8421052631578947,1.9473684210526314,300,-300,600,left,right,,LilyRun1,001,2021_Jul_21_0843,compare_lines,2021.1.4,60.322756790583384,
diagonal1,0,0,0,0,51,1,205,2,,,,,,,,,,,,,692.7850167499855,None,693.2849539999734,None,694.2847016250016,None,right,1.0848009589826688,694.7852062089951,None,None,None,None,1.9473684210526314,1.9473684210526314,300,-300,600,left,right,,LilyRun1,001,2021_Jul_21_0843,compare_lines,2021.1.4,60.322756790583384,
vertical,0,0,0,0,51,2,206,1,,,,,,,,,,,,,695.9016390419565,None,696.4017081669881,None,697.4024712499813,None,down,0.8498419580282643,697.9026081669726,None,None,None,None,2.1052631578947367,1.1578947368421053,300,-300,600,right,left,,LilyRun1,001,2021_Jul_21_0843,compare_lines,2021.1.4,60.322756790583384,
horizontal,0,0,0,0,51,3,207,0,,,,,,,,,,,,,698.768556458992,None,699.2681717919768,None,700.2699602089706,None,left,0.6291360840550624,700.7852831249475,None,None,None,None,2.894736842105263,1.4736842105263157,300,-300,600,right,left,,LilyRun1,001,2021_Jul_21_0843,compare_lines,2021.1.4,60.322756790583384,
diagonal1,0,0,0,0,52,0,208,2,,,,,,,,,,,,,701.4351331249927,None,701.9354205419659,None,702.935342333978,None,down,0.7455055000027642,703.4353034999804,None,None,None,None,1.4736842105263157,1.3157894736842106,300,-300,600,left,right,,LilyRun1,001,2021_Jul_21_0843,compare_lines,2021.1.4,60.322756790583384,
diagonal2,0,0,0,0,52,1,209,3,,,,,,,,,,,,,704.201816124958,None,704.7020107919816,None,705.7020631249761,None,down,0.8145668749930337,706.202050583961,None,None,None,None,2.7368421052631575,2.7368421052631575,300,-300,600,left,right,,LilyRun1,001,2021_Jul_21_0843,compare_lines,2021.1.4,60.322756790583384,
horizontal,0,0,0,0,52,2,210,0,,,,,,,,,,,,,707.0351763339713,None,707.5351772499853,None,708.5354246249772,None,right,0.691712792031467,709.0359801249579,None,None,None,None,1.9473684210526314,3.2105263157894735,300,-300,600,right,left,,LilyRun1,001,2021_Jul_21_0843,compare_lines,2021.1.4,60.322756790583384,
vertical,0,0,0,0,52,3,211,1,,,,,,,,,,,,,709.7515457089758,None,710.2530836669612,None,711.2688492499874,None,down,0.8023267499520443,711.7691149999737,None,None,None,None,1.4736842105263157,2.1052631578947367,300,-300,600,left,right,,LilyRun1,001,2021_Jul_21_0843,compare_lines,2021.1.4,60.322756790583384,
horizontal,0,0,0,0,53,0,212,0,,,,,,,,,,,,,712.6019702089834,None,713.1022162089939,None,714.103085958981,None,left,0.5259312079870142,714.6033086669631,None,None,None,None,3.6842105263157894,3.6842105263157894,300,-300,600,right,left,,LilyRun1,001,2021_Jul_21_0843,compare_lines,2021.1.4,60.322756790583384,
diagonal2,0,0,0,0,53,1,213,3,,,,,,,,,,,,,715.1519810839673,None,715.6521991249756,None,716.6519930840004,None,down,2.0199157500173897,717.1518404169474,None,None,None,None,1.1578947368421053,1.1578947368421053,300,-300,600,right,left,,LilyRun1,001,2021_Jul_21_0843,compare_lines,2021.1.4,60.322756790583384,
diagonal1,0,0,0,0,53,2,214,2,,,,,,,,,,,,,719.2025946669746,None,719.7023100839579,None,720.7022177919862,None,down,0.913584542053286,721.202993874962,None,None,None,None,2.4210526315789473,2.4210526315789473,300,-300,600,left,right,,LilyRun1,001,2021_Jul_21_0843,compare_lines,2021.1.4,60.322756790583384,
vertical,0,0,0,0,53,3,215,1,,,,,,,,,,,,,722.1360558339511,None,722.6360943749896,None,723.6352491669822,None,down,0.7159976249677129,724.1354815419763,None,None,None,None,1.9473684210526314,3.526315789473684,300,-300,600,right,left,,LilyRun1,001,2021_Jul_21_0843,compare_lines,2021.1.4,60.322756790583384,
horizontal,0,0,0,0,54,0,216,0,,,,,,,,,,,,,724.8687152919592,None,725.3688356249477,None,726.3687577089877,None,right,0.6286983330501243,726.868842041993,None,None,None,None,1.9473684210526314,2.7368421052631575,300,-300,600,right,left,,LilyRun1,001,2021_Jul_21_0843,compare_lines,2021.1.4,60.322756790583384,
diagonal2,0,0,0,0,54,1,217,3,,,,,,,,,,,,,727.5185015419847,None,728.019416208961,None,729.0193609589478,None,right,0.6380417500040494,729.5188893339946,None,None,None,None,1.9473684210526314,3.3684210526315788,300,-300,600,left,right,,LilyRun1,001,2021_Jul_21_0843,compare_lines,2021.1.4,60.322756790583384,
diagonal1,0,0,0,0,54,2,218,2,,,,,,,,,,,,,730.1851841669995,None,730.6857777089463,None,731.6853050419595,None,down,0.7535847919643857,732.185570624948,None,None,None,None,3.526315789473684,3.526315789473684,300,-300,600,right,left,,LilyRun1,001,2021_Jul_21_0843,compare_lines,2021.1.4,60.322756790583384,
vertical,0,0,0,0,54,3,219,1,,,,,,,,,,,,,732.968604499998,None,733.4688501249766,None,734.4688615839696,None,down,1.1536337499856018,734.9690249999985,None,None,None,None,1.4736842105263157,1.4736842105263157,300,-300,600,right,left,,LilyRun1,001,2021_Jul_21_0843,compare_lines,2021.1.4,60.322756790583384,
vertical,0,0,0,0,55,0,220,1,,,,,,,,,,,,,736.1522114169784,None,736.6524187089526,None,737.6518644999596,None,down,0.8593606659560464,738.1532194589963,None,None,None,None,3.052631578947368,3.6842105263157894,300,-300,600,right,left,,LilyRun1,001,2021_Jul_21_0843,compare_lines,2021.1.4,60.322756790583384,
diagonal2,0,0,0,0,55,1,221,3,,,,,,,,,,,,,739.035499791964,None,739.5354821669753,None,740.534949541965,None,down,0.7303670840337873,741.0356442919583,None,None,None,None,3.052631578947368,3.052631578947368,300,-300,600,left,right,,LilyRun1,001,2021_Jul_21_0843,compare_lines,2021.1.4,60.322756790583384,
horizontal,0,0,0,0,55,2,222,0,,,,,,,,,,,,,741.7856687919702,None,742.2868712499621,None,743.2861344169942,None,down,0.7146412500296719,743.7865270839538,None,None,None,None,1.1578947368421053,1.1578947368421053,300,-300,600,left,right,,LilyRun1,001,2021_Jul_21_0843,compare_lines,2021.1.4,60.322756790583384,
diagonal1,0,0,0,0,55,3,223,2,,,,,,,,,,,,,744.5186928749899,None,745.0201083339634,None,746.0202542920015,None,down,1.2056851250235923,746.5356608749717,None,None,None,None,4.0,4.0,300,-300,600,right,left,,LilyRun1,001,2021_Jul_21_0843,compare_lines,2021.1.4,60.322756790583384,
diagonal1,0,0,0,0,56,0,224,2,,,,,,,,,,,,,747.7692843749537,None,748.2692061249982,None,749.268954249972,None,down,1.0842055000248365,749.7697899589548,None,None,None,None,1.631578947368421,1.631578947368421,300,-300,600,right,left,,LilyRun1,001,2021_Jul_21_0843,compare_lines,2021.1.4,60.322756790583384,
vertical,0,0,0,0,56,1,225,1,,,,,,,,,,,,,750.8859282920021,None,751.3854561669868,None,752.3854822499561,None,down,0.7024864580016583,752.8856866669958,None,None,None,None,2.1052631578947367,2.1052631578947367,300,-300,600,right,left,,LilyRun1,001,2021_Jul_21_0843,compare_lines,2021.1.4,60.322756790583384,
horizontal,0,0,0,0,56,2,226,0,,,,,,,,,,,,,753.6185757089988,None,754.1190804169746,None,755.119186291995,None,down,0.9196643750183284,755.6191812499892,None,None,None,None,2.263157894736842,1.3157894736842106,300,-300,600,right,left,,LilyRun1,001,2021_Jul_21_0843,compare_lines,2021.1.4,60.322756790583384,
diagonal2,0,0,0,0,56,3,227,3,,,,,,,,,,,,,756.5690586249693,None,757.0696577499621,None,758.0692274589674,None,left,0.9818866670248099,758.5691524169524,None,None,None,None,2.894736842105263,1.3157894736842106,300,-300,600,left,right,,LilyRun1,001,2021_Jul_21_0843,compare_lines,2021.1.4,60.322756790583384,
diagonal1,0,0,0,0,57,0,228,2,,,,,,,,,,,,,759.569803249964,None,760.0695172089618,None,761.0692609999678,None,down,1.2344547499669716,761.5695785419666,None,None,None,None,1.7894736842105263,1.1578947368421053,300,-300,600,right,left,,LilyRun1,001,2021_Jul_21_0843,compare_lines,2021.1.4,60.322756790583384,
vertical,0,0,0,0,57,1,229,1,,,,,,,,,,,,,762.8355017919675,None,763.3362120419624,None,764.3361511249677,None,right,0.7437958340160549,764.8358275420032,None,None,None,None,2.5789473684210527,3.2105263157894735,300,-300,600,left,right,,LilyRun1,001,2021_Jul_21_0843,compare_lines,2021.1.4,60.322756790583384,
horizontal,0,0,0,0,57,2,230,0,,,,,,,,,,,,,765.6022979999543,None,766.10286020895,None,767.1026088339859,None,down,0.9671613340033218,767.602962749952,None,None,None,None,1.631578947368421,1.631578947368421,300,-300,600,left,right,,LilyRun1,001,2021_Jul_21_0843,compare_lines,2021.1.4,60.322756790583384,
diagonal2,0,0,0,0,57,3,231,3,,,,,,,,,,,,,768.585701834003,None,769.0861242919927,None,770.0864169999841,None,down,0.9501648340374231,770.5859098749934,None,None,None,None,3.6842105263157894,3.6842105263157894,300,-300,600,left,right,,LilyRun1,001,2021_Jul_21_0843,compare_lines,2021.1.4,60.322756790583384,
diagonal2,0,0,0,0,58,0,232,3,,,,,,,,,,,,,771.5527091669501,None,772.0527199169737,None,773.0528258749982,None,right,0.6067573329783045,773.5528559169616,None,None,None,None,1.0,2.7368421052631575,300,-300,600,left,right,,LilyRun1,001,2021_Jul_21_0843,compare_lines,2021.1.4,60.322756790583384,
diagonal1,0,0,0,0,58,1,233,2,,,,,,,,,,,,,774.1860023339977,None,774.6859500839491,None,775.6854307919857,None,down,1.1364461249904707,776.1863963339711,None,None,None,None,1.4736842105263157,1.4736842105263157,300,-300,600,left,right,,LilyRun1,001,2021_Jul_21_0843,compare_lines,2021.1.4,60.322756790583384,
horizontal,0,0,0,0,58,2,234,0,,,,,,,,,,,,,777.3528562919819,None,777.8523468749481,None,778.8531155840028,None,down,0.7300655840081163,779.3543792919954,None,None,None,None,3.526315789473684,3.526315789473684,300,-300,600,left,right,,LilyRun1,001,2021_Jul_21_0843,compare_lines,2021.1.4,60.322756790583384,
vertical,0,0,0,0,58,3,235,1,,,,,,,,,,,,,780.1027995419572,None,780.6027406249777,None,781.6027611249592,None,down,0.7527745410334319,782.1032984999474,None,None,None,None,1.3157894736842106,1.3157894736842106,300,-300,600,left,right,,LilyRun1,001,2021_Jul_21_0843,compare_lines,2021.1.4,60.322756790583384,
horizontal,0,0,0,0,59,0,236,0,,,,,,,,,,,,,782.886543749948,None,783.3857900419971,None,784.385838541959,None,right,0.6072970829554833,784.8865178749547,None,None,None,None,1.0,2.894736842105263,300,-300,600,left,right,,LilyRun1,001,2021_Jul_21_0843,compare_lines,2021.1.4,60.322756790583384,
diagonal1,0,0,0,0,59,1,237,2,,,,,,,,,,,,,785.51863924996,None,786.0194387919619,None,787.0196764169959,None,down,0.7716378329787403,787.5192789589637,None,None,None,None,2.4210526315789473,1.4736842105263157,300,-300,600,left,right,,LilyRun1,001,2021_Jul_21_0843,compare_lines,2021.1.4,60.322756790583384,
vertical,0,0,0,0,59,2,238,1,,,,,,,,,,,,,788.3188602500013,None,788.8195049589849,None,789.8190915839514,None,down,0.5658385829883628,790.3191289169481,None,None,None,None,1.9473684210526314,1.9473684210526314,300,-300,600,right,left,,LilyRun1,001,2021_Jul_21_0843,compare_lines,2021.1.4,60.322756790583384,
diagonal2,0,0,0,0,59,3,239,3,,,,,,,,,,,,,790.9022942089941,None,791.4028062089928,None,792.402747208951,None,right,0.47574458294548094,792.9029649169534,None,None,None,None,1.1578947368421053,3.526315789473684,300,-300,600,right,left,,LilyRun1,001,2021_Jul_21_0843,compare_lines,2021.1.4,60.322756790583384,
diagonal1,0,0,0,0,60,0,240,2,,,,,,,,,,,,,793.4025664999499,None,793.9030385839869,None,794.9030611249618,None,right,0.5452239580336027,795.4032621669467,None,None,None,None,2.7368421052631575,3.6842105263157894,300,-300,600,right,left,,LilyRun1,001,2021_Jul_21_0843,compare_lines,2021.1.4,60.322756790583384,
horizontal,0,0,0,0,60,1,241,0,,,,,,,,,,,,,795.9690262089716,None,796.4700238339719,None,797.4696185839712,None,down,1.864555916050449,797.9699707919499,None,None,None,None,3.2105263157894735,3.2105263157894735,300,-300,600,left,right,,LilyRun1,001,2021_Jul_21_0843,compare_lines,2021.1.4,60.322756790583384,
vertical,0,0,0,0,60,2,242,1,,,,,,,,,,,,,799.8533253339701,None,800.3532415419468,None,801.3530590419541,None,right,0.6937453330028802,801.8529121669708,None,None,None,None,1.631578947368421,2.4210526315789473,300,-300,600,left,right,,LilyRun1,001,2021_Jul_21_0843,compare_lines,2021.1.4,60.322756790583384,
diagonal2,0,0,0,0,60,3,243,3,,,,,,,,,,,,,802.5701795420027,None,803.0703275419655,None,804.0703951249598,None,down,0.8337142500095069,804.5699282089481,None,None,None,None,1.4736842105263157,1.4736842105263157,300,-300,600,left,right,,LilyRun1,001,2021_Jul_21_0843,compare_lines,2021.1.4,60.322756790583384,
diagonal1,0,0,0,0,61,0,244,2,,,,,,,,,,,,,805.4201685419539,None,805.9205712089897,None,806.9206429999904,None,right,0.512996541976463,807.4197053749813,None,None,None,None,1.631578947368421,3.8421052631578947,300,-300,600,left,right,,LilyRun1,001,2021_Jul_21_0843,compare_lines,2021.1.4,60.322756790583384,
vertical,0,0,0,0,61,1,245,1,,,,,,,,,,,,,807.9528459589928,None,808.4533047919977,None,809.4529684169684,None,right,1.2816948749823496,809.9529872499988,None,None,None,None,1.3157894736842106,2.5789473684210527,300,-300,600,left,right,,LilyRun1,001,2021_Jul_21_0843,compare_lines,2021.1.4,60.322756790583384,
diagonal2,0,0,0,0,61,2,246,3,,,,,,,,,,,,,811.2527240839554,None,811.7537973749568,None,812.7532209589845,None,down,0.6444737910060212,813.2526421249495,None,None,None,None,2.5789473684210527,3.8421052631578947,300,-300,600,right,left,,LilyRun1,001,2021_Jul_21_0843,compare_lines,2021.1.4,60.322756790583384,
horizontal,0,0,0,0,61,3,247,0,,,,,,,,,,,,,813.9201411249815,None,814.4199725419749,None,815.4205911249737,None,down,0.6748968749889173,815.9192325419863,None,None,None,None,1.9473684210526314,1.631578947368421,300,-300,600,left,right,,LilyRun1,001,2021_Jul_21_0843,compare_lines,2021.1.4,60.322756790583384,
diagonal1,0,0,0,0,62,0,248,2,,,,,,,,,,,,,816.6193640839774,None,817.1200979589485,None,818.1205699589918,None,right,0.592482999956701,818.6197463749559,None,None,None,None,4.0,3.6842105263157894,300,-300,600,left,right,,LilyRun1,001,2021_Jul_21_0843,compare_lines,2021.1.4,60.322756790583384,
diagonal2,0,0,0,0,62,1,249,3,,,,,,,,,,,,,819.2363620839897,None,819.7370411669835,None,820.736646958976,None,left,0.5837524160160683,821.2370372919831,None,None,None,None,2.894736842105263,1.7894736842105263,300,-300,600,right,left,,LilyRun1,001,2021_Jul_21_0843,compare_lines,2021.1.4,60.322756790583384,
horizontal,0,0,0,0,62,2,250,0,,,,,,,,,,,,,821.8363926669699,None,822.3368523339741,None,823.3373975839932,None,right,0.42599233298096806,823.8372523749713,None,None,None,None,2.894736842105263,3.3684210526315788,300,-300,600,left,right,,LilyRun1,001,2021_Jul_21_0843,compare_lines,2021.1.4,60.322756790583384,
vertical,0,0,0,0,62,3,251,1,,,,,,,,,,,,,824.2865600839723,None,824.7875121669495,None,825.7870860839612,None,right,0.43479808303527534,826.2861504169996,None,None,None,None,3.8421052631578947,3.2105263157894735,300,-300,600,left,right,,LilyRun1,001,2021_Jul_21_0843,compare_lines,2021.1.4,60.322756790583384,
diagonal2,0,0,0,0,63,0,252,3,,,,,,,,,,,,,826.7360595419887,None,827.2372572919703,None,828.2367729999823,None,down,0.8273826660006307,828.7370243339683,None,None,None,None,3.052631578947368,3.052631578947368,300,-300,600,left,right,,LilyRun1,001,2021_Jul_21_0843,compare_lines,2021.1.4,60.322756790583384,
horizontal,0,0,0,0,63,1,253,0,,,,,,,,,,,,,829.5862631669734,None,830.0865177089581,None,831.0867666669656,None,left,0.6644736249581911,831.5871747919591,None,None,None,None,4.0,1.9473684210526314,300,-300,600,left,right,,LilyRun1,001,2021_Jul_21_0843,compare_lines,2021.1.4,60.322756790583384,
vertical,0,0,0,0,63,2,254,1,,,,,,,,,,,,,832.2698025419959,None,832.7704590839567,None,833.7696097089793,None,down,1.0847794159781188,834.2703159999801,None,None,None,None,3.2105263157894735,3.2105263157894735,300,-300,600,right,left,,LilyRun1,001,2021_Jul_21_0843,compare_lines,2021.1.4,60.322756790583384,
diagonal1,0,0,0,0,63,3,255,2,,,,,,,,,,,,,835.3867024589563,None,835.8869711249718,None,836.8868607920012,None,down,0.6261140829883516,837.3874279169831,None,None,None,None,1.3157894736842106,1.3157894736842106,300,-300,600,right,left,,LilyRun1,001,2021_Jul_21_0843,compare_lines,2021.1.4,60.322756790583384,
diagonal2,0,0,0,0,64,0,256,3,,,,,,,,,,,,,838.0364609169774,None,838.5375490419683,None,839.5371621669619,None,down,0.7377505000331439,840.0368179999641,None,None,None,None,2.4210526315789473,2.4210526315789473,300,-300,600,left,right,,LilyRun1,001,2021_Jul_21_0843,compare_lines,2021.1.4,60.322756790583384,
horizontal,0,0,0,0,64,1,257,0,,,,,,,,,,,,,840.8029982089647,None,841.3041549589834,None,842.3033829999622,None,right,0.5663305419730023,842.8037497499608,None,None,None,None,3.3684210526315788,3.3684210526315788,300,-300,600,left,right,,LilyRun1,001,2021_Jul_21_0843,compare_lines,2021.1.4,60.322756790583384,
vertical,0,0,0,0,64,2,258,1,,,,,,,,,,,,,843.386822542001,None,843.8868772919523,None,844.8872275419999,None,right,0.6120704580098391,845.3869677920011,None,None,None,None,1.0,3.052631578947368,300,-300,600,left,right,,LilyRun1,001,2021_Jul_21_0843,compare_lines,2021.1.4,60.322756790583384,
diagonal1,0,0,0,0,64,3,259,2,,,,,,,,,,,,,846.0204752919963,None,846.5211204589577,None,847.536527291988,None,down,0.6485686249798164,848.0366765839863,None,None,None,None,2.7368421052631575,2.4210526315789473,300,-300,600,left,right,,LilyRun1,001,2021_Jul_21_0843,compare_lines,2021.1.4,60.322756790583384,
horizontal,0,0,0,0,65,0,260,0,,,,,,,,,,,,,848.7034210419515,None,849.2042187089683,None,850.2034669169807,None,down,0.5206776250270195,850.7037057089619,None,None,None,None,1.4736842105263157,1.1578947368421053,300,-300,600,left,right,,LilyRun1,001,2021_Jul_21_0843,compare_lines,2021.1.4,60.322756790583384,
diagonal1,0,0,0,0,65,1,261,2,,,,,,,,,,,,,851.2538316249847,None,851.7536069999915,None,852.7537359999842,None,down,0.6437214580364525,853.2539898339892,None,None,None,None,2.4210526315789473,2.1052631578947367,300,-300,600,right,left,,LilyRun1,001,2021_Jul_21_0843,compare_lines,2021.1.4,60.322756790583384,
vertical,0,0,0,0,65,2,262,1,,,,,,,,,,,,,853.9196242089965,None,854.4206725419499,None,855.4202768749674,None,down,0.7511159590212628,855.9201422499609,None,None,None,None,1.4736842105263157,1.4736842105263157,300,-300,600,left,right,,LilyRun1,001,2021_Jul_21_0843,compare_lines,2021.1.4,60.322756790583384,
diagonal2,0,0,0,0,65,3,263,3,,,,,,,,,,,,,856.6871613749536,None,857.1870208339533,None,858.1879097089986,None,down,0.6537951249629259,858.6877082089777,None,None,None,None,2.263157894736842,2.4210526315789473,300,-300,600,left,right,,LilyRun1,001,2021_Jul_21_0843,compare_lines,2021.1.4,60.322756790583384,
vertical,0,0,0,0,66,0,264,1,,,,,,,,,,,,,859.3700841669925,None,859.871241374989,None,860.8867822919856,None,right,0.5681482919608243,861.3875508749625,None,None,None,None,1.4736842105263157,3.052631578947368,300,-300,600,right,left,,LilyRun1,001,2021_Jul_21_0843,compare_lines,2021.1.4,60.322756790583384,
horizontal,0,0,0,0,66,1,265,0,,,,,,,,,,,,,861.9868701249943,None,862.4872074169689,None,863.4874921669834,None,down,0.51484779198654,863.9874896249967,None,None,None,None,1.3157894736842106,1.3157894736842106,300,-300,600,right,left,,LilyRun1,001,2021_Jul_21_0843,compare_lines,2021.1.4,60.322756790583384,
diagonal1,0,0,0,0,66,2,266,2,,,,,,,,,,,,,864.5200342499884,None,865.0206447919481,None,866.0204013749608,None,down,0.6783477499848232,866.5206628749729,None,None,None,None,2.263157894736842,2.263157894736842,300,-300,600,right,left,,LilyRun1,001,2021_Jul_21_0843,compare_lines,2021.1.4,60.322756790583384,
diagonal2,0,0,0,0,66,3,267,3,,,,,,,,,,,,,867.2200783339795,None,867.7202979999711,None,868.7211212919792,None,down,1.2169202080112882,869.220145166968,None,None,None,None,2.1052631578947367,2.1052631578947367,300,-300,600,left,right,,LilyRun1,001,2021_Jul_21_0843,compare_lines,2021.1.4,60.322756790583384,
horizontal,0,0,0,0,67,0,268,0,,,,,,,,,,,,,870.4536209589569,None,870.9541140839574,None,871.9539759169566,None,down,1.6080388749833219,872.4543826669687,None,None,None,None,1.9473684210526314,1.0,300,-300,600,left,right,,LilyRun1,001,2021_Jul_21_0843,compare_lines,2021.1.4,60.322756790583384,
diagonal2,0,0,0,0,67,1,269,3,,,,,,,,,,,,,874.0872031669714,None,874.587661833968,None,875.5867671669694,None,right,0.6595357499900274,876.087574708974,None,None,None,None,3.8421052631578947,3.8421052631578947,300,-300,600,left,right,,LilyRun1,001,2021_Jul_21_0843,compare_lines,2021.1.4,60.322756790583384,
vertical,0,0,0,0,67,2,270,1,,,,,,,,,,,,,876.7704044999555,None,877.2712599589722,None,878.270538333978,None,down,0.6825232499977574,878.7705281249946,None,None,None,None,1.1578947368421053,2.894736842105263,300,-300,600,left,right,,LilyRun1,001,2021_Jul_21_0843,compare_lines,2021.1.4,60.322756790583384,
diagonal1,0,0,0,0,67,3,271,2,,,,,,,,,,,,,879.4705132499803,None,879.9704787089722,None,880.9707167499582,None,down,0.6604540839907713,881.4711134169484,None,None,None,None,2.263157894736842,2.263157894736842,300,-300,600,right,left,,LilyRun1,001,2021_Jul_21_0843,compare_lines,2021.1.4,60.322756790583384,
diagonal1,0,0,0,0,68,0,272,2,,,,,,,,,,,,,882.153671166976,None,882.6537402499816,None,883.6539656669484,None,left,1.1092854589805938,884.153653583955,None,None,None,None,3.2105263157894735,3.2105263157894735,300,-300,600,right,left,,LilyRun1,001,2021_Jul_21_0843,compare_lines,2021.1.4,60.322756790583384,
vertical,0,0,0,0,68,1,273,1,,,,,,,,,,,,,885.2876560839941,None,885.7875124589773,None,886.7874251249596,None,left,0.8642681670025922,887.2874757499667,None,None,None,None,2.894736842105263,2.5789473684210527,300,-300,600,right,left,,LilyRun1,001,2021_Jul_21_0843,compare_lines,2021.1.4,60.322756790583384,
diagonal2,0,0,0,0,68,2,274,3,,,,,,,,,,,,,888.1700849999906,None,888.670488374948,None,889.6704585839761,None,down,0.8008708339766599,890.1708093749476,None,None,None,None,2.5789473684210527,2.5789473684210527,300,-300,600,left,right,,LilyRun1,001,2021_Jul_21_0843,compare_lines,2021.1.4,60.322756790583384,
horizontal,0,0,0,0,68,3,275,0,,,,,,,,,,,,,890.9865945839556,None,891.4876582089928,None,892.4875762919546,None,right,0.8641162079875357,892.9876172499498,None,None,None,None,1.7894736842105263,4.0,300,-300,600,right,left,,LilyRun1,001,2021_Jul_21_0843,compare_lines,2021.1.4,60.322756790583384,
vertical,0,0,0,0,69,0,276,1,,,,,,,,,,,,,893.8708555839839,None,894.3710380839766,None,895.3708200419787,None,down,0.7936511250445619,895.8704052919638,None,None,None,None,3.526315789473684,3.526315789473684,300,-300,600,right,left,,LilyRun1,001,2021_Jul_21_0843,compare_lines,2021.1.4,60.322756790583384,
horizontal,0,0,0,0,69,1,277,0,,,,,,,,,,,,,896.6869885839988,None,897.1875938749872,None,898.1871389999869,None,down,0.648992582981009,898.687371249951,None,None,None,None,2.4210526315789473,3.2105263157894735,300,-300,600,left,right,,LilyRun1,001,2021_Jul_21_0843,compare_lines,2021.1.4,60.322756790583384,
diagonal1,0,0,0,0,69,2,278,2,,,,,,,,,,,,,899.3538575839484,None,899.855041208968,None,900.8708116670023,None,left,0.9744791659759358,901.3702974999906,None,None,None,None,3.6842105263157894,2.5789473684210527,300,-300,600,left,right,,LilyRun1,001,2021_Jul_21_0843,compare_lines,2021.1.4,60.322756790583384,
diagonal2,0,0,0,0,69,3,279,3,,,,,,,,,,,,,902.3703647919465,None,902.8707980419858,None,903.8704572919523,None,down,0.9332963339984417,904.370862583979,None,None,None,None,3.8421052631578947,3.8421052631578947,300,-300,600,left,right,,LilyRun1,001,2021_Jul_21_0843,compare_lines,2021.1.4,60.322756790583384,
vertical,0,0,0,0,70,0,280,1,,,,,,,,,,,,,905.3206055419869,None,905.8205934169819,None,906.8208688339801,None,down,0.583287833025679,907.320318833983,None,None,None,None,2.5789473684210527,2.5789473684210527,300,-300,600,left,right,,LilyRun1,001,2021_Jul_21_0843,compare_lines,2021.1.4,60.322756790583384,
diagonal1,0,0,0,0,70,1,281,2,,,,,,,,,,,,,907.9200665839599,None,908.4209032919607,None,909.4211343339994,None,down,0.9978463749866933,909.9209186249645,None,None,None,None,2.263157894736842,3.6842105263157894,300,-300,600,right,left,,LilyRun1,001,2021_Jul_21_0843,compare_lines,2021.1.4,60.322756790583384,
diagonal2,0,0,0,0,70,2,282,3,,,,,,,,,,,,,910.9377718749456,None,911.4374627919751,None,912.4374514999799,None,right,0.681944084004499,912.9372406670009,None,None,None,None,2.4210526315789473,4.0,300,-300,600,left,right,,LilyRun1,001,2021_Jul_21_0843,compare_lines,2021.1.4,60.322756790583384,
horizontal,0,0,0,0,70,3,283,0,,,,,,,,,,,,,913.6374402089859,None,914.137423291977,None,915.1377861249493,None,left,0.6138860830105841,915.6378998750006,None,None,None,None,3.052631578947368,1.631578947368421,300,-300,600,left,right,,LilyRun1,001,2021_Jul_21_0843,compare_lines,2021.1.4,60.322756790583384,
horizontal,0,0,0,0,71,0,284,0,,,,,,,,,,,,,916.271101249964,None,916.7710979999974,None,917.7715171669843,None,right,0.5590524169965647,918.2703983339597,None,None,None,None,2.5789473684210527,4.0,300,-300,600,left,right,,LilyRun1,001,2021_Jul_21_0843,compare_lines,2021.1.4,60.322756790583384,
diagonal1,0,0,0,0,71,1,285,2,,,,,,,,,,,,,918.8542125419481,None,919.354271624994,None,920.3541059169802,None,down,0.6434405409963802,920.8542231669999,None,None,None,None,1.3157894736842106,1.3157894736842106,300,-300,600,right,left,,LilyRun1,001,2021_Jul_21_0843,compare_lines,2021.1.4,60.322756790583384,
diagonal2,0,0,0,0,71,2,286,3,,,,,,,,,,,,,921.520420374989,None,922.0215125839459,None,923.020717708976,None,down,0.7968622499611229,923.520987625001,None,None,None,None,2.5789473684210527,2.1052631578947367,300,-300,600,left,right,,LilyRun1,001,2021_Jul_21_0843,compare_lines,2021.1.4,60.322756790583384,
vertical,0,0,0,0,71,3,287,1,,,,,,,,,,,,,924.3369731669663,None,924.8377817499568,None,925.8376469999785,None,left,0.5222281249589287,926.3373283339897,None,None,None,None,4.0,1.631578947368421,300,-300,600,right,left,,LilyRun1,001,2021_Jul_21_0843,compare_lines,2021.1.4,60.322756790583384,
diagonal2,0,0,0,0,72,0,288,3,,,,,,,,,,,,,926.8870150839793,None,927.3876852089888,None,928.3879078750033,None,left,0.8553628749796189,928.8885827499907,None,None,None,None,3.3684210526315788,3.3684210526315788,300,-300,600,right,left,,LilyRun1,001,2021_Jul_21_0843,compare_lines,2021.1.4,60.322756790583384,
vertical,0,0,0,0,72,1,289,1,,,,,,,,,,,,,929.7703859589528,None,930.2707571669598,None,931.2711236249888,None,right,0.6600241250125691,931.7709143339889,None,None,None,None,1.3157894736842106,2.4210526315789473,300,-300,600,left,right,,LilyRun1,001,2021_Jul_21_0843,compare_lines,2021.1.4,60.322756790583384,
diagonal1,0,0,0,0,72,2,290,2,,,,,,,,,,,,,932.4540606669616,None,932.9541403749608,None,933.9541600419907,None,down,0.7236314580077305,934.4543043749873,None,None,None,None,1.1578947368421053,1.1578947368421053,300,-300,600,left,right,,LilyRun1,001,2021_Jul_21_0843,compare_lines,2021.1.4,60.322756790583384,
horizontal,0,0,0,0,72,3,291,0,,,,,,,,,,,,,935.204282458988,None,935.704709499958,None,936.7044701249688,None,right,0.6183165420079604,937.2045889999717,None,None,None,None,3.052631578947368,3.052631578947368,300,-300,600,left,right,,LilyRun1,001,2021_Jul_21_0843,compare_lines,2021.1.4,60.322756790583384,
vertical,0,0,0,0,73,0,292,1,,,,,,,,,,,,,937.8539665419958,None,938.3543333339621,None,939.3548308750032,None,down,1.1123426249832846,939.8547168749501,None,None,None,None,3.052631578947368,3.052631578947368,300,-300,600,left,right,,LilyRun1,001,2021_Jul_21_0843,compare_lines,2021.1.4,60.322756790583384,
horizontal,0,0,0,0,73,1,293,0,,,,,,,,,,,,,940.9878941669594,None,941.4877856669482,None,942.4877540839952,None,down,1.27678587497212,942.987919291947,None,None,None,None,2.7368421052631575,2.7368421052631575,300,-300,600,left,right,,LilyRun1,001,2021_Jul_21_0843,compare_lines,2021.1.4,60.322756790583384,
diagonal2,0,0,0,0,73,2,294,3,,,,,,,,,,,,,944.2878497499623,None,944.7883495419519,None,945.7877772919601,None,left,1.1898167909821495,946.2878354999702,None,None,None,None,2.263157894736842,1.4736842105263157,300,-300,600,left,right,,LilyRun1,001,2021_Jul_21_0843,compare_lines,2021.1.4,60.322756790583384,
diagonal1,0,0,0,0,73,3,295,2,,,,,,,,,,,,,947.504713125003,None,948.004799916991,None,949.0043679589871,None,left,1.0803995000314899,949.5045321669895,None,None,None,None,2.894736842105263,1.0,300,-300,600,right,left,,LilyRun1,001,2021_Jul_21_0843,compare_lines,2021.1.4,60.322756790583384,
vertical,0,0,0,0,74,0,296,1,,,,,,,,,,,,,950.6045412090025,None,951.1047211669502,None,952.1048187089618,None,down,1.5158144169836305,952.6046478339704,None,None,None,None,2.5789473684210527,2.5789473684210527,300,-300,600,right,left,,LilyRun1,001,2021_Jul_21_0843,compare_lines,2021.1.4,60.322756790583384,
horizontal,0,0,0,0,74,1,297,0,,,,,,,,,,,,,954.1385686249705,None,954.637842917,None,955.6380125839496,None,right,0.6729031249997206,956.1377837089822,None,None,None,None,2.263157894736842,2.263157894736842,300,-300,600,left,right,,LilyRun1,001,2021_Jul_21_0843,compare_lines,2021.1.4,60.322756790583384,
diagonal1,0,0,0,0,74,2,298,2,,,,,,,,,,,,,956.8377031249693,None,957.3378567499458,None,958.3385288749705,None,right,0.5731121659628116,958.8378792089643,None,None,None,None,1.3157894736842106,4.0,300,-300,600,left,right,,LilyRun1,001,2021_Jul_21_0843,compare_lines,2021.1.4,60.322756790583384,
diagonal2,0,0,0,0,74,3,299,3,,,,,,,,,,,,,959.4374924589647,None,959.9383311669808,None,960.9378218749771,None,left,0.4368007910088636,961.4380660000024,None,None,None,None,3.2105263157894735,3.2105263157894735,300,-300,600,right,left,,LilyRun1,001,2021_Jul_21_0843,compare_lines,2021.1.4,60.322756790583384,
diagonal1,0,0,0,0,75,0,300,2,,,,,,,,,,,,,961.9042309999932,None,962.4052908339654,None,963.4049330839771,None,down,0.6488351250300184,963.9050709589501,None,None,None,None,2.894736842105263,2.894736842105263,300,-300,600,left,right,,LilyRun1,001,2021_Jul_21_0843,compare_lines,2021.1.4,60.322756790583384,
horizontal,0,0,0,0,75,1,301,0,,,,,,,,,,,,,964.5713387089781,None,965.0712033750024,None,966.0715102919494,None,left,0.7112702080048621,966.5717235839693,None,None,None,None,4.0,1.4736842105263157,300,-300,600,right,left,,LilyRun1,001,2021_Jul_21_0843,compare_lines,2021.1.4,60.322756790583384,
diagonal2,0,0,0,0,75,2,302,3,,,,,,,,,,,,,967.3047067919979,None,967.8046127499547,None,968.8043530419818,None,left,0.8290671250433661,969.3049930839916,None,None,None,None,3.3684210526315788,1.1578947368421053,300,-300,600,left,right,,LilyRun1,001,2021_Jul_21_0843,compare_lines,2021.1.4,60.322756790583384,
vertical,0,0,0,0,75,3,303,1,,,,,,,,,,,,,970.154434749973,None,970.655228833959,None,971.6548209169996,None,left,0.7030332910362631,972.1544899169821,None,None,None,None,3.6842105263157894,3.052631578947368,300,-300,600,left,right,,LilyRun1,001,2021_Jul_21_0843,compare_lines,2021.1.4,60.322756790583384,
vertical,0,0,0,0,76,0,304,1,,,,,,,,,,,,,972.8875980839948,None,973.3882167499978,None,974.3880285419873,None,down,0.5515841249725781,974.8880720419693,None,None,None,None,3.2105263157894735,3.3684210526315788,300,-300,600,right,left,,LilyRun1,001,2021_Jul_21_0843,compare_lines,2021.1.4,60.322756790583384,
horizontal,0,0,0,0,76,1,305,0,,,,,,,,,,,,,975.4546524169855,None,975.9550407920033,None,976.9545165419695,None,left,0.6145435000071302,977.4554371249978,None,None,None,None,3.526315789473684,2.894736842105263,300,-300,600,right,left,,LilyRun1,001,2021_Jul_21_0843,compare_lines,2021.1.4,60.322756790583384,
diagonal2,0,0,0,0,76,2,306,3,,,,,,,,,,,,,978.0878391249571,None,978.5879122499609,None,979.5883062499925,None,right,0.5955194589914754,980.0885287499987,None,None,None,None,1.3157894736842106,2.894736842105263,300,-300,600,left,right,,LilyRun1,001,2021_Jul_21_0843,compare_lines,2021.1.4,60.322756790583384,
diagonal1,0,0,0,0,76,3,307,2,,,,,,,,,,,,,980.7045368749532,None,981.2050025839708,None,982.2051956249634,None,down,0.6791888329898939,982.7052470839699,None,None,None,None,1.1578947368421053,1.1578947368421053,300,-300,600,left,right,,LilyRun1,001,2021_Jul_21_0843,compare_lines,2021.1.4,60.322756790583384,
diagonal2,0,0,0,0,77,0,308,3,,,,,,,,,,,,,983.4042877089814,None,983.9053027919726,None,984.9050367499585,None,down,0.6531247500097379,985.4054700839915,None,None,None,None,2.263157894736842,2.263157894736842,300,-300,600,right,left,,LilyRun1,001,2021_Jul_21_0843,compare_lines,2021.1.4,60.322756790583384,
horizontal,0,0,0,0,77,1,309,0,,,,,,,,,,,,,986.0878442089888,None,986.5888819999527,None,987.5876059589791,None,left,0.559040583029855,988.088813166949,None,None,None,None,2.7368421052631575,2.5789473684210527,300,-300,600,right,left,,LilyRun1,001,2021_Jul_21_0843,compare_lines,2021.1.4,60.322756790583384,
diagonal1,0,0,0,0,77,2,310,2,,,,,,,,,,,,,988.6712075419491,None,989.1717019999633,None,990.1717494999757,None,down,1.3126452089636587,990.6723120840034,None,None,None,None,3.526315789473684,3.526315789473684,300,-300,600,right,left,,LilyRun1,001,2021_Jul_21_0843,compare_lines,2021.1.4,60.322756790583384,
vertical,0,0,0,0,77,3,311,1,,,,,,,,,,,,,992.0054295839509,None,992.5050294999965,None,993.5048270839616,None,down,1.043135208019521,994.0047383749625,None,None,None,None,3.526315789473684,2.5789473684210527,300,-300,600,left,right,,LilyRun1,001,2021_Jul_21_0843,compare_lines,2021.1.4,60.322756790583384,
diagonal1,0,0,0,0,78,0,312,2,,,,,,,,,,,,,995.071310749976,None,995.5718390839756,None,996.5720746669685,None,right,0.5027024170267396,997.0724172499613,None,None,None,None,2.7368421052631575,4.0,300,-300,600,left,right,,LilyRun1,001,2021_Jul_21_0843,compare_lines,2021.1.4,60.322756790583384,
horizontal,0,0,0,0,78,1,313,0,,,,,,,,,,,,,997.605175292003,None,998.1054625839461,None,999.1056012499612,None,down,1.1943637910299003,999.6051858339924,None,None,None,None,2.1052631578947367,1.631578947368421,300,-300,600,left,right,,LilyRun1,001,2021_Jul_21_0843,compare_lines,2021.1.4,60.322756790583384,
diagonal2,0,0,0,0,78,2,314,3,,,,,,,,,,,,,1000.8218997499789,None,1001.3216025419533,None,1002.3217517499579,None,down,1.0366645000176504,1002.8220530839753,None,None,None,None,1.0,2.7368421052631575,300,-300,600,left,right,,LilyRun1,001,2021_Jul_21_0843,compare_lines,2021.1.4,60.322756790583384,
vertical,0,0,0,0,78,3,315,1,,,,,,,,,,,,,1003.8885726669687,None,1004.3882501669577,None,1005.388263958972,None,down,0.7325242499937303,1005.888518791995,None,None,None,None,1.4736842105263157,1.7894736842105263,300,-300,600,right,left,,LilyRun1,001,2021_Jul_21_0843,compare_lines,2021.1.4,60.322756790583384,
diagonal2,0,0,0,0,79,0,316,3,,,,,,,,,,,,,1006.6387297919719,None,1007.1382432919927,None,1008.1383187499596,None,down,0.6495099169551395,1008.6389669170021,None,None,None,None,1.9473684210526314,3.8421052631578947,300,-300,600,right,left,,LilyRun1,001,2021_Jul_21_0843,compare_lines,2021.1.4,60.322756790583384,
diagonal1,0,0,0,0,79,1,317,2,,,,,,,,,,,,,1009.3051457089605,None,1009.8055229589809,None,1010.8054089589859,None,down,0.583498083986342,1011.3052000839962,None,None,None,None,1.0,1.0,300,-300,600,left,right,,LilyRun1,001,2021_Jul_21_0843,compare_lines,2021.1.4,60.322756790583384,
horizontal,0,0,0,0,79,2,318,0,,,,,,,,,,,,,1011.9048304999596,None,1012.4065318749635,None,1013.4219857499702,None,down,0.6954295830219053,1013.9227462499985,None,None,None,None,2.1052631578947367,2.1052631578947367,300,-300,600,right,left,,LilyRun1,001,2021_Jul_21_0843,compare_lines,2021.1.4,60.322756790583384,
vertical,0,0,0,0,79,3,319,1,,,,,,,,,,,,,1014.6383232919616,None,1015.1384762499947,None,1016.1385663339752,None,left,0.4838172090239823,1016.6387165419874,None,None,None,None,3.052631578947368,1.9473684210526314,300,-300,600,right,left,,LilyRun1,001,2021_Jul_21_0843,compare_lines,2021.1.4,60.322756790583384,
horizontal,0,0,0,0,80,0,320,0,,,,,,,,,,,,,1017.1386402499629,None,1017.63899162499,None,1018.6381858339882,None,down,0.600438249995932,1019.1395304589532,None,None,None,None,1.9473684210526314,1.7894736842105263,300,-300,600,right,left,,LilyRun1,001,2021_Jul_21_0843,compare_lines,2021.1.4,60.322756790583384,
diagonal1,0,0,0,0,80,1,321,2,,,,,,,,,,,,,1019.7554035839858,None,1020.2551790839643,None,1021.2553947499837,None,down,0.4656280830386095,1021.7556739589782,None,None,None,None,3.052631578947368,3.052631578947368,300,-300,600,left,right,,LilyRun1,001,2021_Jul_21_0843,compare_lines,2021.1.4,60.322756790583384,
diagonal2,0,0,0,0,80,2,322,3,,,,,,,,,,,,,1022.2384778749547,None,1022.7385058339569,None,1023.7388283339678,None,right,0.4704390830011107,1024.2391111669713,None,None,None,None,1.1578947368421053,3.526315789473684,300,-300,600,left,right,,LilyRun1,001,2021_Jul_21_0843,compare_lines,2021.1.4,60.322756790583384,
vertical,0,0,0,0,80,3,323,1,,,,,,,,,,,,,1024.7380099589936,None,1025.2391225419706,None,1026.2384426249773,None,down,0.47593766602221876,1026.7393462499604,None,None,None,None,1.631578947368421,1.631578947368421,300,-300,600,right,left,,LilyRun1,001,2021_Jul_21_0843,compare_lines,2021.1.4,60.322756790583384,
