line_orientation,blocks.thisRepN,blocks.thisTrialN,blocks.thisN,blocks.thisIndex,trials.thisRepN,trials.thisTrialN,trials.thisN,trials.thisIndex,InstructionText.started,InstructionText.stopped,InstructionResponse.keys,InstructionResponse.rt,InstructionResponse.started,InstructionResponse.stopped,BlockText.started,BlockText.stopped,key_resp_2.keys,key_resp_2.rt,key_resp_2.started,key_resp_2.stopped,ISITimer.started,ISITimer.stopped,FirstLineTimer.started,FirstLineTimer.stopped,GapTimer.started,GapTimer.stopped,SeqResponse.keys,SeqResponse.rt,SeqResponse.started,SeqResponse.stopped,ResponseSimul.keys,ResponseSimul.started,ResponseSimul.stopped,left_width,right_width,global_line_length,global_starting_point_left_x,global_distance_between_lines,first_line_label,second_line_label,ResponseSimul.rt,participant,session,date,expName,psychopyVersion,frameRate,
,,,,,,,,,16.933227799999997,None,space,2.3202960999999505,16.933227799999997,None,,,,,,,,,,,,,,,,,,,,,,,,,,,,Nick,001,2021_Jul_19_1956,compare_lines,2021.2.0,59.995524333880994,
horizontal,0,0,0,0,0,0,0,0,,,,,,,19.291803399999992,None,space,1.2225248999999963,19.291803399999992,None,20.54717679999999,None,21.059566500000017,None,22.053884299999993,None,down,1.7622837000000118,22.554214899999977,None,None,None,None,3.3684210526315788,4.0,300,-300,600,right,left,,Nick,001,2021_Jul_19_1956,compare_lines,2021.2.0,59.995524333880994,
vertical,0,0,0,0,0,1,1,1,,,,,,,,,,,,,24.3462394,None,24.853868199999965,None,25.85381739999997,None,left,0.7855748999999719,26.35367960000002,None,None,None,None,3.526315789473684,1.7894736842105263,300,-300,600,right,left,,Nick,001,2021_Jul_19_1956,compare_lines,2021.2.0,59.995524333880994,
diagonal2,0,0,0,0,0,2,2,3,,,,,,,,,,,,,27.16150859999999,None,27.670291899999995,None,28.67016269999999,None,down,1.312093799999957,29.170152099999996,None,None,None,None,3.526315789473684,3.526315789473684,300,-300,600,right,left,,Nick,001,2021_Jul_19_1956,compare_lines,2021.2.0,59.995524333880994,
diagonal1,0,0,0,0,0,3,3,2,,,,,,,,,,,,,30.5077091,None,31.02020809999999,None,32.02017649999999,None,right,1.5000844999999572,32.51999619999998,None,None,None,None,2.7368421052631575,3.8421052631578947,300,-300,600,right,left,,Nick,001,2021_Jul_19_1956,compare_lines,2021.2.0,59.995524333880994,
diagonal1,0,0,0,0,1,0,4,2,,,,,,,,,,,,,34.04156519999998,None,34.55326209999998,None,35.55309490000002,None,left,0.5156779999999799,36.05306680000001,None,None,None,None,2.894736842105263,1.631578947368421,300,-300,600,right,left,,Nick,001,2021_Jul_19_1956,compare_lines,2021.2.0,59.995524333880994,
diagonal2,0,0,0,0,1,1,5,3,,,,,,,,,,,,,36.594733399999996,None,37.10478439999997,None,38.103647799999976,None,right,2.1663694000000078,38.60330110000001,None,None,None,None,1.4736842105263157,1.4736842105263157,300,-300,600,right,left,,Nick,001,2021_Jul_19_1956,compare_lines,2021.2.0,59.995524333880994,
vertical,0,0,0,0,1,2,6,1,,,,,,,,,,,,,40.79017190000002,None,41.30298799999997,None,42.30275169999999,None,left,0.48490889999999354,42.80286769999998,None,None,None,None,2.894736842105263,1.4736842105263157,300,-300,600,right,left,,Nick,001,2021_Jul_19_1956,compare_lines,2021.2.0,59.995524333880994,
horizontal,0,0,0,0,1,3,7,0,,,,,,,,,,,,,43.3095677,None,43.819490900000005,None,44.81924889999999,None,right,1.1310592000000383,45.31932979999999,None,None,None,None,1.0,2.263157894736842,300,-300,600,right,left,,Nick,001,2021_Jul_19_1956,compare_lines,2021.2.0,59.995524333880994,
vertical,0,0,0,0,2,0,8,1,,,,,,,,,,,,,46.47378420000001,None,46.985996099999966,None,47.98575169999998,None,down,0.9797597999999539,48.48569349999997,None,None,None,None,1.7894736842105263,1.7894736842105263,300,-300,600,left,right,,Nick,001,2021_Jul_19_1956,compare_lines,2021.2.0,59.995524333880994,
horizontal,0,0,0,0,2,1,9,0,,,,,,,,,,,,,49.490417699999966,None,50.00230060000001,None,51.002264999999966,None,left,0.7520877000000041,51.502227800000014,None,None,None,None,3.8421052631578947,3.8421052631578947,300,-300,600,right,left,,Nick,001,2021_Jul_19_1956,compare_lines,2021.2.0,59.995524333880994,
diagonal2,0,0,0,0,2,2,10,3,,,,,,,,,,,,,52.27556199999998,None,52.78584380000001,None,53.785373600000014,None,down,0.7015339000000154,54.28535569999997,None,None,None,None,1.9473684210526314,1.7894736842105263,300,-300,600,left,right,,Nick,001,2021_Jul_19_1956,compare_lines,2021.2.0,59.995524333880994,
diagonal1,0,0,0,0,2,3,11,2,,,,,,,,,,,,,55.01001120000001,None,55.51882039999998,None,56.51900159999997,None,right,0.8617735000000266,57.018495400000006,None,None,None,None,1.0,2.7368421052631575,300,-300,600,right,left,,Nick,001,2021_Jul_19_1956,compare_lines,2021.2.0,59.995524333880994,
diagonal2,0,0,0,0,3,0,12,3,,,,,,,,,,,,,57.9169268,None,58.41851409999998,None,59.419206299999985,None,right,0.6586994999999547,59.918505400000015,None,None,None,None,1.3157894736842106,2.1052631578947367,300,-300,600,left,right,,Nick,001,2021_Jul_19_1956,compare_lines,2021.2.0,59.995524333880994,
horizontal,0,0,0,0,3,1,13,0,,,,,,,,,,,,,60.61653819999998,None,61.121294499999976,None,62.135381800000005,None,left,0.8336651999999845,62.634884899999975,None,None,None,None,3.3684210526315788,3.3684210526315788,300,-300,600,right,left,,Nick,001,2021_Jul_19_1956,compare_lines,2021.2.0,59.995524333880994,
diagonal1,0,0,0,0,3,2,14,2,,,,,,,,,,,,,63.49132109999999,None,64.00114059999999,None,65.0011869,None,right,0.7961813000000006,65.50115260000001,None,None,None,None,1.9473684210526314,2.5789473684210527,300,-300,600,right,left,,Nick,001,2021_Jul_19_1956,compare_lines,2021.2.0,59.995524333880994,
vertical,0,0,0,0,3,3,15,1,,,,,,,,,,,,,66.32483759999997,None,66.83429469999999,None,67.8343774,None,left,0.8665485000000217,68.3343678,None,None,None,None,3.526315789473684,3.526315789473684,300,-300,600,right,left,,Nick,001,2021_Jul_19_1956,compare_lines,2021.2.0,59.995524333880994,
diagonal2,0,0,0,0,4,0,16,3,,,,,,,,,,,,,69.22502129999998,None,69.73431549999998,None,70.73525849999999,None,right,0.8666397000000075,71.23562820000001,None,None,None,None,1.3157894736842106,1.7894736842105263,300,-300,600,right,left,,Nick,001,2021_Jul_19_1956,compare_lines,2021.2.0,59.995524333880994,
horizontal,0,0,0,0,4,1,17,0,,,,,,,,,,,,,72.13513619999998,None,72.63814000000002,None,73.64305009999998,None,left,0.5732002000000307,74.15211979999998,None,None,None,None,3.3684210526315788,2.4210526315789473,300,-300,600,right,left,,Nick,001,2021_Jul_19_1956,compare_lines,2021.2.0,59.995524333880994,
vertical,0,0,0,0,4,2,18,1,,,,,,,,,,,,,74.77060399999999,None,75.29801379999998,None,76.28652840000001,None,left,0.4364957999999888,76.78495279999999,None,None,None,None,3.3684210526315788,2.263157894736842,300,-300,600,right,left,,Nick,001,2021_Jul_19_1956,compare_lines,2021.2.0,59.995524333880994,
diagonal1,0,0,0,0,4,3,19,2,,,,,,,,,,,,,77.25369519999998,None,77.77014029999998,None,78.781206,None,right,0.5541022000000453,79.26795349999998,None,None,None,None,1.7894736842105263,3.3684210526315788,300,-300,600,right,left,,Nick,001,2021_Jul_19_1956,compare_lines,2021.2.0,59.995524333880994,
diagonal1,0,0,0,0,5,0,20,2,,,,,,,,,,,,,79.85939009999998,None,80.36722529999997,None,81.36684529999997,None,right,0.9008198999999877,81.8683671,None,None,None,None,1.9473684210526314,2.7368421052631575,300,-300,600,right,left,,Nick,001,2021_Jul_19_1956,compare_lines,2021.2.0,59.995524333880994,
vertical,0,0,0,0,5,1,21,1,,,,,,,,,,,,,82.79115280000002,None,83.30034769999997,None,84.30095799999998,None,right,0.4131735000000276,84.80008409999999,None,None,None,None,1.1578947368421053,3.6842105263157894,300,-300,600,left,right,,Nick,001,2021_Jul_19_1956,compare_lines,2021.2.0,59.995524333880994,
horizontal,0,0,0,0,5,2,22,0,,,,,,,,,,,,,85.23981359999999,None,85.75004419999999,None,86.749931,None,down,0.7321789999999737,87.25030570000001,None,None,None,None,2.5789473684210527,3.2105263157894735,300,-300,600,right,left,,Nick,001,2021_Jul_19_1956,compare_lines,2021.2.0,59.995524333880994,
diagonal2,0,0,0,0,5,3,23,3,,,,,,,,,,,,,88.00677289999999,None,88.51690379999997,None,89.5165366,None,right,0.49494199999998045,90.0167452,None,None,None,None,1.631578947368421,3.2105263157894735,300,-300,600,right,left,,Nick,001,2021_Jul_19_1956,compare_lines,2021.2.0,59.995524333880994,
diagonal1,0,0,0,0,6,0,24,2,,,,,,,,,,,,,90.5426276,None,91.04961199999997,None,92.04991050000001,None,right,0.7491929000000255,92.549507,None,None,None,None,1.1578947368421053,1.9473684210526314,300,-300,600,right,left,,Nick,001,2021_Jul_19_1956,compare_lines,2021.2.0,59.995524333880994,
vertical,0,0,0,0,6,1,25,1,,,,,,,,,,,,,93.32974960000001,None,93.8363511,None,94.84985039999998,None,down,0.9825289000000339,95.34960209999997,None,None,None,None,2.4210526315789473,2.5789473684210527,300,-300,600,right,left,,Nick,001,2021_Jul_19_1956,compare_lines,2021.2.0,59.995524333880994,
diagonal2,0,0,0,0,6,2,26,3,,,,,,,,,,,,,96.3539748,None,96.86584139999997,None,97.8659356,None,down,0.8267160999999987,98.36591829999998,None,None,None,None,1.9473684210526314,1.9473684210526314,300,-300,600,right,left,,Nick,001,2021_Jul_19_1956,compare_lines,2021.2.0,59.995524333880994,
horizontal,0,0,0,0,6,3,27,0,,,,,,,,,,,,,99.22287460000001,None,99.7324893,None,100.73247029999999,None,left,0.5592543000000205,101.23242519999997,None,None,None,None,3.526315789473684,2.263157894736842,300,-300,600,left,right,,Nick,001,2021_Jul_19_1956,compare_lines,2021.2.0,59.995524333880994,
diagonal1,0,0,0,0,7,0,28,2,,,,,,,,,,,,,101.81985349999997,None,102.3322058,None,103.332178,None,down,0.8378430000000208,103.83223939999999,None,None,None,None,4.0,4.0,300,-300,600,left,right,,Nick,001,2021_Jul_19_1956,compare_lines,2021.2.0,59.995524333880994,
vertical,0,0,0,0,7,1,29,1,,,,,,,,,,,,,104.70292230000001,None,105.21550919999999,None,106.21546689999997,None,left,0.5029784999999833,106.71543739999998,None,None,None,None,3.8421052631578947,2.263157894736842,300,-300,600,right,left,,Nick,001,2021_Jul_19_1956,compare_lines,2021.2.0,59.995524333880994,
horizontal,0,0,0,0,7,2,30,0,,,,,,,,,,,,,107.2392668,None,107.74920370000001,None,108.7486371,None,down,0.769494399999985,109.24860799999999,None,None,None,None,3.2105263157894735,3.2105263157894735,300,-300,600,right,left,,Nick,001,2021_Jul_19_1956,compare_lines,2021.2.0,59.995524333880994,
diagonal2,0,0,0,0,7,3,31,3,,,,,,,,,,,,,110.03737159999997,None,110.54860070000001,None,111.54852189999997,None,left,0.6250707999999463,112.04842889999998,None,None,None,None,3.6842105263157894,3.6842105263157894,300,-300,600,right,left,,Nick,001,2021_Jul_19_1956,compare_lines,2021.2.0,59.995524333880994,
diagonal2,0,0,0,0,8,0,32,3,,,,,,,,,,,,,112.70292119999999,None,113.21502620000001,None,114.215012,None,right,0.8835670999999934,114.71497139999997,None,None,None,None,1.0,1.0,300,-300,600,right,left,,Nick,001,2021_Jul_19_1956,compare_lines,2021.2.0,59.995524333880994,
vertical,0,0,0,0,8,1,33,1,,,,,,,,,,,,,115.62288380000001,None,116.13153540000002,None,117.1316349,None,down,0.5699177000000191,117.63149859999999,None,None,None,None,1.631578947368421,1.631578947368421,300,-300,600,right,left,,Nick,001,2021_Jul_19_1956,compare_lines,2021.2.0,59.995524333880994,
horizontal,0,0,0,0,8,2,34,0,,,,,,,,,,,,,118.2205146,None,118.73128559999998,None,119.731336,None,right,0.4810880999999654,120.2311985,None,None,None,None,4.0,4.0,300,-300,600,left,right,,Nick,001,2021_Jul_19_1956,compare_lines,2021.2.0,59.995524333880994,
diagonal1,0,0,0,0,8,3,35,2,,,,,,,,,,,,,120.73809970000002,None,121.2479778,None,122.24807729999998,None,down,0.8272424000000456,122.74784699999998,None,None,None,None,1.631578947368421,1.631578947368421,300,-300,600,left,right,,Nick,001,2021_Jul_19_1956,compare_lines,2021.2.0,59.995524333880994,
diagonal1,0,0,0,0,9,0,36,2,,,,,,,,,,,,,123.60470859999998,None,124.1144157,None,125.11434730000002,None,down,0.8707311000000004,125.61434509999998,None,None,None,None,3.052631578947368,2.894736842105263,300,-300,600,left,right,,Nick,001,2021_Jul_19_1956,compare_lines,2021.2.0,59.995524333880994,
vertical,0,0,0,0,9,1,37,1,,,,,,,,,,,,,126.51801159999997,None,127.03082080000001,None,128.0308566,None,left,0.533799799999997,128.530821,None,None,None,None,3.2105263157894735,1.7894736842105263,300,-300,600,left,right,,Nick,001,2021_Jul_19_1956,compare_lines,2021.2.0,59.995524333880994,
horizontal,0,0,0,0,9,2,38,0,,,,,,,,,,,,,129.0880909,None,129.5974288,None,130.59765099999998,None,down,0.9655805000000441,131.09736119999997,None,None,None,None,1.7894736842105263,1.7894736842105263,300,-300,600,left,right,,Nick,001,2021_Jul_19_1956,compare_lines,2021.2.0,59.995524333880994,
diagonal2,0,0,0,0,9,3,39,3,,,,,,,,,,,,,132.08774449999999,None,132.59715169999998,None,133.597239,None,down,0.7018833999999856,134.0972182,None,None,None,None,1.0,1.7894736842105263,300,-300,600,left,right,,Nick,001,2021_Jul_19_1956,compare_lines,2021.2.0,59.995524333880994,
diagonal2,0,0,0,0,10,0,40,3,,,,,,,,,,,,,134.82028680000002,None,135.33085060000002,None,136.33053460000002,None,right,0.8320334000000003,136.8304124,None,None,None,None,2.894736842105263,2.894736842105263,300,-300,600,left,right,,Nick,001,2021_Jul_19_1956,compare_lines,2021.2.0,59.995524333880994,
horizontal,0,0,0,0,10,1,41,0,,,,,,,,,,,,,137.6875829,None,138.19691640000002,None,139.19690889999998,None,left,0.47578629999998157,139.6968602,None,None,None,None,3.052631578947368,1.4736842105263157,300,-300,600,right,left,,Nick,001,2021_Jul_19_1956,compare_lines,2021.2.0,59.995524333880994,
diagonal1,0,0,0,0,10,2,42,2,,,,,,,,,,,,,140.2025858,None,140.7134494,None,141.71379609999997,None,down,0.8768101000000001,142.21353620000002,None,None,None,None,3.526315789473684,3.052631578947368,300,-300,600,left,right,,Nick,001,2021_Jul_19_1956,compare_lines,2021.2.0,59.995524333880994,
vertical,0,0,0,0,10,3,43,1,,,,,,,,,,,,,143.1200316,None,143.63024919999998,None,144.6298948,None,down,0.7767670000000066,145.12988719999998,None,None,None,None,3.052631578947368,3.8421052631578947,300,-300,600,right,left,,Nick,001,2021_Jul_19_1956,compare_lines,2021.2.0,59.995524333880994,
vertical,0,0,0,0,11,0,44,1,,,,,,,,,,,,,145.9362165,None,146.4466888,None,147.446413,None,down,0.5582307000000242,147.9464018,None,None,None,None,2.5789473684210527,2.263157894736842,300,-300,600,left,right,,Nick,001,2021_Jul_19_1956,compare_lines,2021.2.0,59.995524333880994,
diagonal2,0,0,0,0,11,1,45,3,,,,,,,,,,,,,148.53624680000001,None,149.0463416,None,150.0462316,None,right,0.553149899999994,150.5462394,None,None,None,None,1.631578947368421,3.8421052631578947,300,-300,600,right,left,,Nick,001,2021_Jul_19_1956,compare_lines,2021.2.0,59.995524333880994,
diagonal1,0,0,0,0,11,2,46,2,,,,,,,,,,,,,151.119579,None,151.6297518,None,152.62953699999997,None,left,0.6241398000000231,153.1294251,None,None,None,None,3.6842105263157894,1.7894736842105263,300,-300,600,right,left,,Nick,001,2021_Jul_19_1956,compare_lines,2021.2.0,59.995524333880994,
horizontal,0,0,0,0,11,3,47,0,,,,,,,,,,,,,153.7868535,None,154.2961088,None,155.29596479999998,None,left,0.7555950999999936,155.79595319999999,None,None,None,None,2.894736842105263,1.0,300,-300,600,left,right,,Nick,001,2021_Jul_19_1956,compare_lines,2021.2.0,59.995524333880994,
horizontal,0,0,0,0,12,0,48,0,,,,,,,,,,,,,156.58569439999997,None,157.09583700000002,None,158.0960007,None,right,0.41241450000001123,158.59614299999998,None,None,None,None,2.1052631578947367,3.3684210526315788,300,-300,600,left,right,,Nick,001,2021_Jul_19_1956,compare_lines,2021.2.0,59.995524333880994,
diagonal2,0,0,0,0,12,1,49,3,,,,,,,,,,,,,159.0421731,None,159.54577109999997,None,160.54590760000002,None,down,0.7088688000000047,161.04561940000002,None,None,None,None,1.0,1.4736842105263157,300,-300,600,left,right,,Nick,001,2021_Jul_19_1956,compare_lines,2021.2.0,59.995524333880994,
diagonal1,0,0,0,0,12,2,50,2,,,,,,,,,,,,,161.78682320000001,None,162.29542859999998,None,163.29555620000002,None,down,36.123146399999996,163.79563819999998,None,None,None,None,2.1052631578947367,2.1052631578947367,300,-300,600,left,right,,Nick,001,2021_Jul_19_1956,compare_lines,2021.2.0,59.995524333880994,
vertical,0,0,0,0,12,3,51,1,,,,,,,,,,,,,199.94740819999998,None,200.45995729999999,None,201.45999919999997,None,down,0.6495385999999712,201.9599478,None,None,None,None,2.894736842105263,2.894736842105263,300,-300,600,left,right,,Nick,001,2021_Jul_19_1956,compare_lines,2021.2.0,59.995524333880994,
horizontal,0,0,0,0,13,0,52,0,,,,,,,,,,,,,202.63366209999998,None,203.14307250000002,None,204.14319369999998,None,left,0.7734145999999669,204.643143,None,None,None,None,2.4210526315789473,2.4210526315789473,300,-300,600,right,left,,Nick,001,2021_Jul_19_1956,compare_lines,2021.2.0,59.995524333880994,
diagonal2,0,0,0,0,13,1,53,3,,,,,,,,,,,,,205.450965,None,205.95967589999998,None,206.9596419,None,right,0.3806737000000453,207.45977770000002,None,None,None,None,1.0,3.3684210526315788,300,-300,600,right,left,,Nick,001,2021_Jul_19_1956,compare_lines,2021.2.0,59.995524333880994,
diagonal1,0,0,0,0,13,2,54,2,,,,,,,,,,,,,207.86768969999997,None,208.37616579999997,None,209.3761758,None,right,0.6742062000000146,209.8761965,None,None,None,None,1.4736842105263157,2.4210526315789473,300,-300,600,left,right,,Nick,001,2021_Jul_19_1956,compare_lines,2021.2.0,59.995524333880994,
vertical,0,0,0,0,13,3,55,1,,,,,,,,,,,,,210.58471659999998,None,211.09275029999998,None,212.09276440000002,None,left,0.9831183999999666,212.5926285,None,None,None,None,3.526315789473684,1.3157894736842106,300,-300,600,right,left,,Nick,001,2021_Jul_19_1956,compare_lines,2021.2.0,59.995524333880994,
vertical,0,0,0,0,14,0,56,1,,,,,,,,,,,,,213.5965064,None,214.10920240000002,None,215.1091647,None,right,0.7895424999999818,215.6092097,None,None,None,None,1.3157894736842106,2.7368421052631575,300,-300,600,right,left,,Nick,001,2021_Jul_19_1956,compare_lines,2021.2.0,59.995524333880994,
diagonal2,0,0,0,0,14,1,57,3,,,,,,,,,,,,,216.43119559999997,None,216.9422851,None,217.9423463,None,down,0.6605609999999729,218.44266699999997,None,None,None,None,3.2105263157894735,3.2105263157894735,300,-300,600,left,right,,Nick,001,2021_Jul_19_1956,compare_lines,2021.2.0,59.995524333880994,
horizontal,0,0,0,0,14,2,58,0,,,,,,,,,,,,,219.1321481,None,219.6423008,None,220.6421588,None,down,0.6889671000000135,221.14213159999997,None,None,None,None,3.526315789473684,3.526315789473684,300,-300,600,right,left,,Nick,001,2021_Jul_19_1956,compare_lines,2021.2.0,59.995524333880994,
diagonal1,0,0,0,0,14,3,59,2,,,,,,,,,,,,,221.86517629999997,None,222.3752869,None,223.3757829,None,down,1.017989,223.8753213,None,None,None,None,3.052631578947368,3.052631578947368,300,-300,600,left,right,,Nick,001,2021_Jul_19_1956,compare_lines,2021.2.0,59.995524333880994,
vertical,0,0,0,0,15,0,60,1,,,,,,,,,,,,,224.91213,None,225.42522049999997,None,226.4253766,None,left,0.44285780000001296,226.9255174,None,None,None,None,3.052631578947368,1.1578947368421053,300,-300,600,left,right,,Nick,001,2021_Jul_19_1956,compare_lines,2021.2.0,59.995524333880994,
diagonal1,0,0,0,0,15,1,61,2,,,,,,,,,,,,,227.3958568,None,227.90840429999997,None,228.90822070000002,None,down,0.7129964999999743,229.40820129999997,None,None,None,None,2.1052631578947367,2.1052631578947367,300,-300,600,right,left,,Nick,001,2021_Jul_19_1956,compare_lines,2021.2.0,59.995524333880994,
diagonal2,0,0,0,0,15,2,62,3,,,,,,,,,,,,,230.1483018,None,230.65814569999998,None,231.65833679999997,None,left,0.39987089999999625,232.1583137,None,None,None,None,3.526315789473684,1.631578947368421,300,-300,600,right,left,,Nick,001,2021_Jul_19_1956,compare_lines,2021.2.0,59.995524333880994,
horizontal,0,0,0,0,15,3,63,0,,,,,,,,,,,,,232.58187879999997,None,233.09145139999998,None,234.09144270000002,None,left,0.9531471000000238,234.5914303,None,None,None,None,1.1578947368421053,1.1578947368421053,300,-300,600,left,right,,Nick,001,2021_Jul_19_1956,compare_lines,2021.2.0,59.995524333880994,
vertical,0,0,0,0,16,0,64,1,,,,,,,,,,,,,235.5647361,None,236.07453349999997,None,237.07460170000002,None,down,0.8474911000000134,237.57457390000002,None,None,None,None,1.7894736842105263,1.7894736842105263,300,-300,600,right,left,,Nick,001,2021_Jul_19_1956,compare_lines,2021.2.0,59.995524333880994,
diagonal2,0,0,0,0,16,1,65,3,,,,,,,,,,,,,238.44796609999997,None,238.96090829999997,None,239.95800579999997,None,left,1.0641145000000165,240.4577271,None,None,None,None,2.4210526315789473,1.631578947368421,300,-300,600,left,right,,Nick,001,2021_Jul_19_1956,compare_lines,2021.2.0,59.995524333880994,
diagonal1,0,0,0,0,16,2,66,2,,,,,,,,,,,,,241.54537820000002,None,242.05809720000002,None,243.05771699999997,None,right,0.6292784999999981,243.5574808,None,None,None,None,1.0,1.631578947368421,300,-300,600,right,left,,Nick,001,2021_Jul_19_1956,compare_lines,2021.2.0,59.995524333880994,
horizontal,0,0,0,0,16,3,67,0,,,,,,,,,,,,,244.21183359999998,None,244.72417939999997,None,245.7241381,None,left,0.5338748000000351,246.22407499999997,None,None,None,None,3.526315789473684,1.1578947368421053,300,-300,600,left,right,,Nick,001,2021_Jul_19_1956,compare_lines,2021.2.0,59.995524333880994,
diagonal2,0,0,0,0,17,0,68,3,,,,,,,,,,,,,246.7810695,None,247.2904863,None,248.29055010000002,None,left,0.7849585000000161,248.79054479999996,None,None,None,None,1.631578947368421,1.1578947368421053,300,-300,600,right,left,,Nick,001,2021_Jul_19_1956,compare_lines,2021.2.0,59.995524333880994,
vertical,0,0,0,0,17,1,69,1,,,,,,,,,,,,,249.59731630000005,None,250.10706250000004,None,251.10707629999996,None,right,0.6559818000000632,251.60705390000004,None,None,None,None,1.0,2.5789473684210527,300,-300,600,right,left,,Nick,001,2021_Jul_19_1956,compare_lines,2021.2.0,59.995524333880994,
horizontal,0,0,0,0,17,2,70,0,,,,,,,,,,,,,252.29677980000002,None,252.8071759,None,253.80676250000005,None,left,0.3505415999999286,254.30689779999994,None,None,None,None,3.6842105263157894,1.631578947368421,300,-300,600,right,left,,Nick,001,2021_Jul_19_1956,compare_lines,2021.2.0,59.995524333880994,
diagonal1,0,0,0,0,17,3,71,2,,,,,,,,,,,,,254.677618,None,255.19069340000004,None,256.19062549999995,None,down,0.7263808000000154,256.69008479999997,None,None,None,None,1.9473684210526314,2.263157894736842,300,-300,600,right,left,,Nick,001,2021_Jul_19_1956,compare_lines,2021.2.0,59.995524333880994,
diagonal1,0,0,0,0,18,0,72,2,,,,,,,,,,,,,257.44678530000004,None,257.95656419999995,None,258.9567225,None,down,0.6692851999999903,259.4565915,None,None,None,None,1.4736842105263157,1.4736842105263157,300,-300,600,left,right,,Nick,001,2021_Jul_19_1956,compare_lines,2021.2.0,59.995524333880994,
diagonal2,0,0,0,0,18,1,73,3,,,,,,,,,,,,,260.145186,None,260.65647789999997,None,261.656456,None,right,0.45415460000003804,262.15641569999997,None,None,None,None,1.7894736842105263,1.7894736842105263,300,-300,600,left,right,,Nick,001,2021_Jul_19_1956,compare_lines,2021.2.0,59.995524333880994,
horizontal,0,0,0,0,18,2,74,0,,,,,,,,,,,,,262.64350740000003,None,263.1563862,None,264.15634429999994,None,down,0.61424640000007,264.65630359999994,None,None,None,None,2.1052631578947367,2.1052631578947367,300,-300,600,left,right,,Nick,001,2021_Jul_19_1956,compare_lines,2021.2.0,59.995524333880994,
vertical,0,0,0,0,18,3,75,1,,,,,,,,,,,,,265.29425699999996,None,265.8060953,None,266.8061786,None,down,0.6288641000001007,267.30611700000003,None,None,None,None,2.1052631578947367,1.1578947368421053,300,-300,600,right,left,,Nick,001,2021_Jul_19_1956,compare_lines,2021.2.0,59.995524333880994,
vertical,0,0,0,0,19,0,76,1,,,,,,,,,,,,,267.9631093,None,268.4727555,None,269.4726542,None,left,0.9837925000000496,269.9726768,None,None,None,None,2.5789473684210527,2.5789473684210527,300,-300,600,right,left,,Nick,001,2021_Jul_19_1956,compare_lines,2021.2.0,59.995524333880994,
diagonal1,0,0,0,0,19,1,77,2,,,,,,,,,,,,,270.97600270000004,None,271.4892703,None,272.4892232,None,down,0.7750044000000571,272.98913,None,None,None,None,2.7368421052631575,2.263157894736842,300,-300,600,left,right,,Nick,001,2021_Jul_19_1956,compare_lines,2021.2.0,59.995524333880994,
diagonal2,0,0,0,0,19,2,78,3,,,,,,,,,,,,,273.79677710000004,None,274.305724,None,275.3057505,None,left,0.5532977999999957,275.8060023,None,None,None,None,2.5789473684210527,1.3157894736842106,300,-300,600,left,right,,Nick,001,2021_Jul_19_1956,compare_lines,2021.2.0,59.995524333880994,
horizontal,0,0,0,0,19,3,79,0,,,,,,,,,,,,,276.3794975,None,276.88880639999996,None,277.88889650000004,None,left,0.5488619000000199,278.38887229999995,None,None,None,None,3.3684210526315788,1.4736842105263157,300,-300,600,right,left,,Nick,001,2021_Jul_19_1956,compare_lines,2021.2.0,59.995524333880994,
vertical,0,0,0,0,20,0,80,1,,,,,,,,,,,,,278.9625031,None,279.4720855,None,280.47205319999995,None,right,0.7419170000000577,280.9720335,None,None,None,None,1.4736842105263157,1.4736842105263157,300,-300,600,right,left,,Nick,001,2021_Jul_19_1956,compare_lines,2021.2.0,59.995524333880994,
diagonal2,0,0,0,0,20,1,81,3,,,,,,,,,,,,,281.7455164,None,282.2558926,None,283.2552016,None,down,1.0187683000000334,283.7551887,None,None,None,None,2.4210526315789473,2.894736842105263,300,-300,600,right,left,,Nick,001,2021_Jul_19_1956,compare_lines,2021.2.0,59.995524333880994,
diagonal1,0,0,0,0,20,2,82,2,,,,,,,,,,,,,284.80807209999995,None,285.3217633,None,286.32170720000005,None,left,0.6927490000000489,286.8216451,None,None,None,None,2.4210526315789473,1.7894736842105263,300,-300,600,left,right,,Nick,001,2021_Jul_19_1956,compare_lines,2021.2.0,59.995524333880994,
horizontal,0,0,0,0,20,3,83,0,,,,,,,,,,,,,287.5450388,None,288.05482,None,289.05488669999994,None,left,0.5031766999999263,289.5548534,None,None,None,None,3.526315789473684,1.0,300,-300,600,right,left,,Nick,001,2021_Jul_19_1956,compare_lines,2021.2.0,59.995524333880994,
horizontal,0,0,0,0,21,0,84,0,,,,,,,,,,,,,290.0756402,None,290.5881533,None,291.58807900000005,None,right,0.48917789999995875,292.0880057,None,None,None,None,2.263157894736842,3.052631578947368,300,-300,600,left,right,,Nick,001,2021_Jul_19_1956,compare_lines,2021.2.0,59.995524333880994,
vertical,0,0,0,0,21,1,85,1,,,,,,,,,,,,,292.61161150000004,None,293.12118560000005,None,294.12131159999996,None,left,0.43731900000000223,294.621229,None,None,None,None,3.6842105263157894,2.4210526315789473,300,-300,600,right,left,,Nick,001,2021_Jul_19_1956,compare_lines,2021.2.0,59.995524333880994,
diagonal2,0,0,0,0,21,2,86,3,,,,,,,,,,,,,295.09170650000004,None,295.60445899999996,None,296.60442829999994,None,right,0.5457771000000093,297.1043791,None,None,None,None,2.7368421052631575,3.052631578947368,300,-300,600,left,right,,Nick,001,2021_Jul_19_1956,compare_lines,2021.2.0,59.995524333880994,
diagonal1,0,0,0,0,21,3,87,2,,,,,,,,,,,,,297.67540490000005,None,298.18756390000004,None,299.1876332,None,right,0.6702321999999867,299.68761449999994,None,None,None,None,1.9473684210526314,1.9473684210526314,300,-300,600,right,left,,Nick,001,2021_Jul_19_1956,compare_lines,2021.2.0,59.995524333880994,
vertical,0,0,0,0,22,0,88,1,,,,,,,,,,,,,300.37753460000005,None,300.8873839,None,301.8875046,None,right,0.389979100000005,302.38759899999997,None,None,None,None,1.1578947368421053,2.894736842105263,300,-300,600,left,right,,Nick,001,2021_Jul_19_1956,compare_lines,2021.2.0,59.995524333880994,
diagonal1,0,0,0,0,22,1,89,2,,,,,,,,,,,,,302.810856,None,303.32072669999997,None,304.3206329,None,right,0.5974779000000581,304.82079949999996,None,None,None,None,3.526315789473684,3.3684210526315788,300,-300,600,left,right,,Nick,001,2021_Jul_19_1956,compare_lines,2021.2.0,59.995524333880994,
diagonal2,0,0,0,0,22,2,90,3,,,,,,,,,,,,,305.4452587,None,305.9539742,None,306.95385389999996,None,down,0.7747739999999794,307.45382249999994,None,None,None,None,3.3684210526315788,2.5789473684210527,300,-300,600,left,right,,Nick,001,2021_Jul_19_1956,compare_lines,2021.2.0,59.995524333880994,
horizontal,0,0,0,0,22,3,91,0,,,,,,,,,,,,,308.25908769999995,None,308.7703565,None,309.7703211,None,right,0.6033351000000948,310.2703191,None,None,None,None,1.1578947368421053,1.3157894736842106,300,-300,600,right,left,,Nick,001,2021_Jul_19_1956,compare_lines,2021.2.0,59.995524333880994,
diagonal2,0,0,0,0,23,0,92,3,,,,,,,,,,,,,310.907208,None,311.42022919999994,None,312.420188,None,right,0.4968734000000268,312.92017319999997,None,None,None,None,1.631578947368421,2.263157894736842,300,-300,600,left,right,,Nick,001,2021_Jul_19_1956,compare_lines,2021.2.0,59.995524333880994,
vertical,0,0,0,0,23,1,93,1,,,,,,,,,,,,,313.44329910000005,None,313.9533084,None,314.95334840000004,None,left,0.5023180000000593,315.45337379999995,None,None,None,None,3.6842105263157894,1.4736842105263157,300,-300,600,left,right,,Nick,001,2021_Jul_19_1956,compare_lines,2021.2.0,59.995524333880994,
horizontal,0,0,0,0,23,2,94,0,,,,,,,,,,,,,315.9741965,None,316.48682189999994,None,317.486552,None,right,0.3354380000000674,317.9865467,None,None,None,None,1.1578947368421053,4.0,300,-300,600,left,right,,Nick,001,2021_Jul_19_1956,compare_lines,2021.2.0,59.995524333880994,
diagonal1,0,0,0,0,23,3,95,2,,,,,,,,,,,,,318.34228019999995,None,318.85352670000003,None,319.8531417,None,down,0.6619484000000284,320.3529541,None,None,None,None,1.7894736842105263,1.7894736842105263,300,-300,600,right,left,,Nick,001,2021_Jul_19_1956,compare_lines,2021.2.0,59.995524333880994,
vertical,0,0,0,0,24,0,96,1,,,,,,,,,,,,,321.0432314,None,321.55308729999996,None,322.5529777,None,left,0.40172080000002097,323.0529687,None,None,None,None,2.1052631578947367,1.631578947368421,300,-300,600,right,left,,Nick,001,2021_Jul_19_1956,compare_lines,2021.2.0,59.995524333880994,
diagonal1,0,0,0,0,24,1,97,2,,,,,,,,,,,,,323.4737064,None,323.98607599999997,None,324.9861322,None,down,0.6964254999999184,325.486156,None,None,None,None,1.3157894736842106,1.3157894736842106,300,-300,600,left,right,,Nick,001,2021_Jul_19_1956,compare_lines,2021.2.0,59.995524333880994,
horizontal,0,0,0,0,24,2,98,0,,,,,,,,,,,,,326.2089599,None,326.7196449,None,327.7192977,None,down,0.7750633000000562,328.21926549999995,None,None,None,None,2.894736842105263,3.2105263157894735,300,-300,600,right,left,,Nick,001,2021_Jul_19_1956,compare_lines,2021.2.0,59.995524333880994,
diagonal2,0,0,0,0,24,3,99,3,,,,,,,,,,,,,329.02969609999997,None,329.5358388,None,330.5358011,None,left,10.286679100000015,331.0356707,None,None,None,None,3.052631578947368,1.631578947368421,300,-300,600,right,left,,Nick,001,2021_Jul_19_1956,compare_lines,2021.2.0,59.995524333880994,
vertical,0,0,0,0,25,0,100,1,,,,,,,,,,,,,341.35586589999997,None,341.8684764,None,342.8684712,None,right,0.7826087999999345,343.3684692,None,None,None,None,1.3157894736842106,1.3157894736842106,300,-300,600,right,left,,Nick,001,2021_Jul_19_1956,compare_lines,2021.2.0,59.995524333880994,
diagonal2,0,0,0,0,25,1,101,3,,,,,,,,,,,,,344.1725939,None,344.6849765,None,345.6849299,None,down,0.7463986000000205,346.1850575,None,None,None,None,4.0,4.0,300,-300,600,right,left,,Nick,001,2021_Jul_19_1956,compare_lines,2021.2.0,59.995524333880994,
horizontal,0,0,0,0,25,2,102,0,,,,,,,,,,,,,346.95800349999996,None,347.46817330000005,None,348.46840860000003,None,left,0.5289935999999216,348.96806439999995,None,None,None,None,3.052631578947368,2.4210526315789473,300,-300,600,right,left,,Nick,001,2021_Jul_19_1956,compare_lines,2021.2.0,59.995524333880994,
diagonal1,0,0,0,0,25,3,103,2,,,,,,,,,,,,,349.52229819999997,None,350.03470169999997,None,351.03463719999996,None,right,0.7013302000000294,351.5344574,None,None,None,None,1.7894736842105263,1.631578947368421,300,-300,600,right,left,,Nick,001,2021_Jul_19_1956,compare_lines,2021.2.0,59.995524333880994,
diagonal2,0,0,0,0,26,0,104,3,,,,,,,,,,,,,352.25907490000003,None,352.7678599,None,353.7677951,None,left,0.41234320000000935,354.2678044,None,None,None,None,2.4210526315789473,1.0,300,-300,600,right,left,,Nick,001,2021_Jul_19_1956,compare_lines,2021.2.0,59.995524333880994,
horizontal,0,0,0,0,26,1,105,0,,,,,,,,,,,,,354.70536839999994,None,355.217727,None,356.21773179999997,None,down,0.58223559999999,356.71764549999995,None,None,None,None,1.1578947368421053,1.1578947368421053,300,-300,600,left,right,,Nick,001,2021_Jul_19_1956,compare_lines,2021.2.0,59.995524333880994,
vertical,0,0,0,0,26,2,106,1,,,,,,,,,,,,,357.32546010000004,None,357.83423020000004,None,358.8341873,None,left,0.5252252999999882,359.3348298,None,None,None,None,3.3684210526315788,1.9473684210526314,300,-300,600,left,right,,Nick,001,2021_Jul_19_1956,compare_lines,2021.2.0,59.995524333880994,
diagonal1,0,0,0,0,26,3,107,2,,,,,,,,,,,,,359.88988179999996,None,360.4006344,None,361.4007214,None,left,0.6229460000000699,361.90073520000004,None,None,None,None,2.894736842105263,2.894736842105263,300,-300,600,right,left,,Nick,001,2021_Jul_19_1956,compare_lines,2021.2.0,59.995524333880994,
diagonal2,0,0,0,0,27,0,108,3,,,,,,,,,,,,,362.5584263,None,363.06726510000004,None,364.0672344,None,down,0.5964609999999766,364.5674498,None,None,None,None,1.4736842105263157,1.7894736842105263,300,-300,600,right,left,,Nick,001,2021_Jul_19_1956,compare_lines,2021.2.0,59.995524333880994,
diagonal1,0,0,0,0,27,1,109,2,,,,,,,,,,,,,365.19068710000005,None,365.7004175,None,366.70037599999995,None,down,0.6323244999999815,367.20032109999994,None,None,None,None,1.9473684210526314,2.894736842105263,300,-300,600,right,left,,Nick,001,2021_Jul_19_1956,compare_lines,2021.2.0,59.995524333880994,
vertical,0,0,0,0,27,2,110,1,,,,,,,,,,,,,367.85734010000004,None,368.36709190000005,None,369.36687,None,right,0.7707627999999431,369.8668349,None,None,None,None,2.7368421052631575,2.7368421052631575,300,-300,600,left,right,,Nick,001,2021_Jul_19_1956,compare_lines,2021.2.0,59.995524333880994,
horizontal,0,0,0,0,27,3,111,0,,,,,,,,,,,,,370.67068290000003,None,371.1835593,None,372.1833913,None,down,0.5288907999999992,372.68336429999994,None,None,None,None,1.1578947368421053,1.0,300,-300,600,left,right,,Nick,001,2021_Jul_19_1956,compare_lines,2021.2.0,59.995524333880994,
vertical,0,0,0,0,28,0,112,1,,,,,,,,,,,,,373.23987129999995,None,373.750472,None,374.75008429999997,None,left,0.506393600000024,375.249932,None,None,None,None,3.052631578947368,3.052631578947368,300,-300,600,right,left,,Nick,001,2021_Jul_19_1956,compare_lines,2021.2.0,59.995524333880994,
horizontal,0,0,0,0,28,1,113,0,,,,,,,,,,,,,375.7893571,None,376.2999212,None,377.29983739999994,None,down,0.7143111999999974,377.799818,None,None,None,None,3.8421052631578947,3.8421052631578947,300,-300,600,right,left,,Nick,001,2021_Jul_19_1956,compare_lines,2021.2.0,59.995524333880994,
diagonal1,0,0,0,0,28,2,114,2,,,,,,,,,,,,,378.5408567,None,379.0496013,None,380.0496817,None,left,0.4457835000000614,380.549596,None,None,None,None,3.3684210526315788,3.052631578947368,300,-300,600,right,left,,Nick,001,2021_Jul_19_1956,compare_lines,2021.2.0,59.995524333880994,
diagonal2,0,0,0,0,28,3,115,3,,,,,,,,,,,,,381.0207141,None,381.53275160000004,None,382.53280149999995,None,right,0.6543280000000777,383.03276950000003,None,None,None,None,1.4736842105263157,1.1578947368421053,300,-300,600,right,left,,Nick,001,2021_Jul_19_1956,compare_lines,2021.2.0,59.995524333880994,
diagonal2,0,0,0,0,29,0,116,3,,,,,,,,,,,,,383.7230897,None,384.232858,None,385.2330638,None,left,0.5326693999999179,385.73262489999996,None,None,None,None,4.0,1.9473684210526314,300,-300,600,right,left,,Nick,001,2021_Jul_19_1956,compare_lines,2021.2.0,59.995524333880994,
horizontal,0,0,0,0,29,1,117,0,,,,,,,,,,,,,386.28964920000004,None,386.79928049999995,None,387.79921240000004,None,right,0.4263416999999663,388.29913819999996,None,None,None,None,1.0,3.2105263157894735,300,-300,600,left,right,,Nick,001,2021_Jul_19_1956,compare_lines,2021.2.0,59.995524333880994,
vertical,0,0,0,0,29,2,118,1,,,,,,,,,,,,,388.7559137,None,389.2656232,None,390.26571399999995,None,down,0.5655512999999246,390.7656946,None,None,None,None,2.4210526315789473,2.4210526315789473,300,-300,600,right,left,,Nick,001,2021_Jul_19_1956,compare_lines,2021.2.0,59.995524333880994,
diagonal1,0,0,0,0,29,3,119,2,,,,,,,,,,,,,391.35600259999995,None,391.86560019999996,None,392.8655388,None,left,0.4633519000000206,393.36551719999994,None,None,None,None,4.0,3.6842105263157894,300,-300,600,right,left,,Nick,001,2021_Jul_19_1956,compare_lines,2021.2.0,59.995524333880994,
horizontal,0,0,0,0,30,0,120,0,,,,,,,,,,,,,393.8532776,None,394.36534880000005,None,395.36539120000003,None,right,0.39424350000001596,395.8653049,None,None,None,None,4.0,4.0,300,-300,600,left,right,,Nick,001,2021_Jul_19_1956,compare_lines,2021.2.0,59.995524333880994,
diagonal1,0,0,0,0,30,1,121,2,,,,,,,,,,,,,396.28879449999994,None,396.7988042,None,397.7985564,None,right,0.5993520999999191,398.29858310000003,None,None,None,None,2.5789473684210527,3.526315789473684,300,-300,600,right,left,,Nick,001,2021_Jul_19_1956,compare_lines,2021.2.0,59.995524333880994,
vertical,0,0,0,0,30,2,122,1,,,,,,,,,,,,,398.92218299999996,None,399.43187340000003,None,400.43194250000005,None,left,0.42391750000001593,400.93182870000004,None,None,None,None,3.6842105263157894,2.7368421052631575,300,-300,600,right,left,,Nick,001,2021_Jul_19_1956,compare_lines,2021.2.0,59.995524333880994,
diagonal2,0,0,0,0,30,3,123,3,,,,,,,,,,,,,401.38847630000004,None,401.8983023,None,402.89829779999997,None,right,0.34782800000004954,403.3982352,None,None,None,None,1.3157894736842106,3.2105263157894735,300,-300,600,left,right,,Nick,001,2021_Jul_19_1956,compare_lines,2021.2.0,59.995524333880994,
horizontal,0,0,0,0,31,0,124,0,,,,,,,,,,,,,403.7717707,None,404.28154539999997,None,405.28149590000004,None,left,0.7833724000000757,405.781454,None,None,None,None,3.2105263157894735,2.4210526315789473,300,-300,600,right,left,,Nick,001,2021_Jul_19_1956,compare_lines,2021.2.0,59.995524333880994,
diagonal1,0,0,0,0,31,1,125,2,,,,,,,,,,,,,406.5877343,None,407.0980365,None,408.0979987,None,down,0.666399599999977,408.5979511,None,None,None,None,2.7368421052631575,2.894736842105263,300,-300,600,left,right,,Nick,001,2021_Jul_19_1956,compare_lines,2021.2.0,59.995524333880994,
vertical,0,0,0,0,31,2,126,1,,,,,,,,,,,,,409.2885967,None,409.79783979999996,None,410.79799729999996,None,right,0.5996441999999433,411.29799799999995,None,None,None,None,2.263157894736842,2.894736842105263,300,-300,600,left,right,,Nick,001,2021_Jul_19_1956,compare_lines,2021.2.0,59.995524333880994,
diagonal2,0,0,0,0,31,3,127,3,,,,,,,,,,,,,411.9215076,None,412.4311121,None,413.4314096,None,left,0.5796126999999842,413.93095639999996,None,None,None,None,4.0,2.4210526315789473,300,-300,600,left,right,,Nick,001,2021_Jul_19_1956,compare_lines,2021.2.0,59.995524333880994,
diagonal1,0,0,0,0,32,0,128,2,,,,,,,,,,,,,414.5377812,None,415.0474674,None,416.04757820000003,None,right,0.6361373999999387,416.54746959999994,None,None,None,None,2.263157894736842,3.2105263157894735,300,-300,600,right,left,,Nick,001,2021_Jul_19_1956,compare_lines,2021.2.0,59.995524333880994,
diagonal2,0,0,0,0,32,1,129,3,,,,,,,,,,,,,417.2016014,None,417.7141489,None,418.71400769999997,None,right,0.4604677999999467,419.21398659999994,None,None,None,None,1.3157894736842106,3.052631578947368,300,-300,600,left,right,,Nick,001,2021_Jul_19_1956,compare_lines,2021.2.0,59.995524333880994,
vertical,0,0,0,0,32,2,130,1,,,,,,,,,,,,,419.7043336,None,420.21394530000003,None,421.2139471,None,left,0.4666989999999487,421.71394119999997,None,None,None,None,2.894736842105263,1.7894736842105263,300,-300,600,right,left,,Nick,001,2021_Jul_19_1956,compare_lines,2021.2.0,59.995524333880994,
horizontal,0,0,0,0,32,3,131,0,,,,,,,,,,,,,422.20368390000004,None,422.7137952,None,423.7137403,None,down,0.5355164000000059,424.21373609999995,None,None,None,None,1.9473684210526314,1.3157894736842106,300,-300,600,right,left,,Nick,001,2021_Jul_19_1956,compare_lines,2021.2.0,59.995524333880994,
vertical,0,0,0,0,33,0,132,1,,,,,,,,,,,,,424.7726552,None,425.28069009999996,None,426.28015550000003,None,right,0.7075290999999879,426.78023649999994,None,None,None,None,2.263157894736842,4.0,300,-300,600,right,left,,Nick,001,2021_Jul_19_1956,compare_lines,2021.2.0,59.995524333880994,
horizontal,0,0,0,0,33,1,133,0,,,,,,,,,,,,,427.52132439999997,None,428.0301699,None,429.0301347,None,right,0.5154023000000052,429.5306771,None,None,None,None,1.631578947368421,3.3684210526315788,300,-300,600,right,left,,Nick,001,2021_Jul_19_1956,compare_lines,2021.2.0,59.995524333880994,
diagonal2,0,0,0,0,33,2,134,3,,,,,,,,,,,,,430.07038589999996,None,430.57999609999996,None,431.58000239999996,None,left,0.5103665999999976,432.0800446,None,None,None,None,3.8421052631578947,2.4210526315789473,300,-300,600,left,right,,Nick,001,2021_Jul_19_1956,compare_lines,2021.2.0,59.995524333880994,
diagonal1,0,0,0,0,33,3,135,2,,,,,,,,,,,,,432.620032,None,433.12999099999996,None,434.12983119999996,None,down,0.833479699999998,434.6298039,None,None,None,None,3.3684210526315788,3.3684210526315788,300,-300,600,right,left,,Nick,001,2021_Jul_19_1956,compare_lines,2021.2.0,59.995524333880994,
diagonal1,0,0,0,0,34,0,136,2,,,,,,,,,,,,,435.48647769999997,None,435.9963813,None,436.9962906,None,left,1.6829377999999906,437.4963134,None,None,None,None,3.8421052631578947,3.8421052631578947,300,-300,600,right,left,,Nick,001,2021_Jul_19_1956,compare_lines,2021.2.0,59.995524333880994,
horizontal,0,0,0,0,34,1,137,0,,,,,,,,,,,,,439.1999557,None,439.7128294,None,440.71277819999995,None,left,0.4904734000000417,441.2127171,None,None,None,None,3.052631578947368,1.9473684210526314,300,-300,600,left,right,,Nick,001,2021_Jul_19_1956,compare_lines,2021.2.0,59.995524333880994,
diagonal2,0,0,0,0,34,2,138,3,,,,,,,,,,,,,441.7361801,None,442.2459779,None,443.2459631,None,down,0.9473807999999053,443.7459461,None,None,None,None,2.7368421052631575,2.7368421052631575,300,-300,600,right,left,,Nick,001,2021_Jul_19_1956,compare_lines,2021.2.0,59.995524333880994,
vertical,0,0,0,0,34,3,139,1,,,,,,,,,,,,,444.7193193,None,445.22918239999996,None,446.22908950000004,None,right,0.47465220000003683,446.72907319999996,None,None,None,None,2.894736842105263,4.0,300,-300,600,left,right,,Nick,001,2021_Jul_19_1956,compare_lines,2021.2.0,59.995524333880994,
vertical,0,0,0,0,35,0,140,1,,,,,,,,,,,,,447.23660160000003,None,447.7457681,None,448.74577270000003,None,down,0.6398341999999957,449.24622949999997,None,None,None,None,1.3157894736842106,1.3157894736842106,300,-300,600,right,left,,Nick,001,2021_Jul_19_1956,compare_lines,2021.2.0,59.995524333880994,
diagonal2,0,0,0,0,35,1,141,3,,,,,,,,,,,,,449.919006,None,450.4287553,None,451.42878949999994,None,down,0.7013006000000814,451.92876359999997,None,None,None,None,2.1052631578947367,2.1052631578947367,300,-300,600,left,right,,Nick,001,2021_Jul_19_1956,compare_lines,2021.2.0,59.995524333880994,
horizontal,0,0,0,0,35,2,142,0,,,,,,,,,,,,,452.65206070000005,None,453.1619317,None,454.16226309999996,None,right,0.38436620000004496,454.66196210000004,None,None,None,None,1.4736842105263157,3.526315789473684,300,-300,600,left,right,,Nick,001,2021_Jul_19_1956,compare_lines,2021.2.0,59.995524333880994,
diagonal1,0,0,0,0,35,3,143,2,,,,,,,,,,,,,455.06885129999995,None,455.57858389999996,None,456.579007,None,down,0.8576610000000073,457.0784667,None,None,None,None,1.631578947368421,1.9473684210526314,300,-300,600,left,right,,Nick,001,2021_Jul_19_1956,compare_lines,2021.2.0,59.995524333880994,
horizontal,0,0,0,0,36,0,144,0,,,,,,,,,,,,,457.96728390000004,None,458.4783564,None,459.4783573,None,left,0.42024419999995644,459.97830530000005,None,None,None,None,3.8421052631578947,1.4736842105263157,300,-300,600,left,right,,Nick,001,2021_Jul_19_1956,compare_lines,2021.2.0,59.995524333880994,
diagonal1,0,0,0,0,36,1,145,2,,,,,,,,,,,,,460.41816249999994,None,460.9283849,None,461.92818229999995,None,left,0.4084392999999409,462.4284892,None,None,None,None,3.3684210526315788,1.1578947368421053,300,-300,600,right,left,,Nick,001,2021_Jul_19_1956,compare_lines,2021.2.0,59.995524333880994,
vertical,0,0,0,0,36,2,146,1,,,,,,,,,,,,,462.86829959999994,None,463.37814480000003,None,464.3780811,None,right,0.3455938000000742,464.87793559999994,None,None,None,None,1.4736842105263157,3.2105263157894735,300,-300,600,left,right,,Nick,001,2021_Jul_19_1956,compare_lines,2021.2.0,59.995524333880994,
diagonal2,0,0,0,0,36,3,147,3,,,,,,,,,,,,,465.2522224,None,465.76148370000004,None,466.76136230000003,None,down,0.6290900999999849,467.2612287,None,None,None,None,1.0,1.0,300,-300,600,left,right,,Nick,001,2021_Jul_19_1956,compare_lines,2021.2.0,59.995524333880994,
vertical,0,0,0,0,37,0,148,1,,,,,,,,,,,,,467.91538239999994,None,468.42782930000004,None,469.42778119999997,None,down,0.6265766000000212,469.92773730000005,None,None,None,None,1.631578947368421,1.4736842105263157,300,-300,600,right,left,,Nick,001,2021_Jul_19_1956,compare_lines,2021.2.0,59.995524333880994,
diagonal2,0,0,0,0,37,1,149,3,,,,,,,,,,,,,470.5881105,None,471.09430990000004,None,472.0943362,None,down,0.7699516000000131,472.59457360000005,None,None,None,None,1.631578947368421,1.631578947368421,300,-300,600,left,right,,Nick,001,2021_Jul_19_1956,compare_lines,2021.2.0,59.995524333880994,
diagonal1,0,0,0,0,37,2,150,2,,,,,,,,,,,,,473.39795780000003,None,473.9107744,None,474.9107972,None,down,0.551283900000044,475.4107681,None,None,None,None,1.3157894736842106,1.4736842105263157,300,-300,600,right,left,,Nick,001,2021_Jul_19_1956,compare_lines,2021.2.0,59.995524333880994,
horizontal,0,0,0,0,37,3,151,0,,,,,,,,,,,,,475.98523140000003,None,476.49401700000004,None,477.4939778,None,right,0.38455470000008063,477.99394549999994,None,None,None,None,2.1052631578947367,3.526315789473684,300,-300,600,right,left,,Nick,001,2021_Jul_19_1956,compare_lines,2021.2.0,59.995524333880994,
diagonal1,0,0,0,0,38,0,152,2,,,,,,,,,,,,,478.40066429999996,None,478.91049960000004,None,479.91054809999997,None,down,0.7808459999999968,480.41052440000004,None,None,None,None,2.894736842105263,3.526315789473684,300,-300,600,right,left,,Nick,001,2021_Jul_19_1956,compare_lines,2021.2.0,59.995524333880994,
vertical,0,0,0,0,38,1,153,1,,,,,,,,,,,,,481.21729780000004,None,481.72701249999994,None,482.7270289,None,down,0.7507910999999012,483.2269838,None,None,None,None,2.7368421052631575,3.526315789473684,300,-300,600,right,left,,Nick,001,2021_Jul_19_1956,compare_lines,2021.2.0,59.995524333880994,
diagonal2,0,0,0,0,38,2,154,3,,,,,,,,,,,,,484.00075350000003,None,484.51028089999994,None,485.51020550000004,None,right,0.4724555000000237,486.01015920000003,None,None,None,None,1.9473684210526314,3.6842105263157894,300,-300,600,right,left,,Nick,001,2021_Jul_19_1956,compare_lines,2021.2.0,59.995524333880994,
horizontal,0,0,0,0,38,3,155,0,,,,,,,,,,,,,486.51685159999994,None,487.02680949999996,None,488.0270576,None,down,0.6476509000000306,488.5266536,None,None,None,None,3.052631578947368,3.052631578947368,300,-300,600,left,right,,Nick,001,2021_Jul_19_1956,compare_lines,2021.2.0,59.995524333880994,
diagonal1,0,0,0,0,39,0,156,2,,,,,,,,,,,,,489.201205,None,489.70992729999995,None,490.7098018,None,left,0.40408350000006976,491.20989360000004,None,None,None,None,4.0,1.0,300,-300,600,left,right,,Nick,001,2021_Jul_19_1956,compare_lines,2021.2.0,59.995524333880994,
diagonal2,0,0,0,0,39,1,157,3,,,,,,,,,,,,,491.64694479999997,None,492.15980369999994,None,493.15971970000004,None,left,0.8667077000000063,493.65962499999995,None,None,None,None,1.0,1.0,300,-300,600,left,right,,Nick,001,2021_Jul_19_1956,compare_lines,2021.2.0,59.995524333880994,
horizontal,0,0,0,0,39,2,158,0,,,,,,,,,,,,,494.54834439999996,None,495.0596959,None,496.059405,None,left,0.5809163999999782,496.55951539999995,None,None,None,None,3.2105263157894735,3.2105263157894735,300,-300,600,right,left,,Nick,001,2021_Jul_19_1956,compare_lines,2021.2.0,59.995524333880994,
vertical,0,0,0,0,39,3,159,1,,,,,,,,,,,,,497.16603460000005,None,497.6763593,None,498.67606959999995,None,down,0.7516220999999632,499.17606299999994,None,None,None,None,3.2105263157894735,3.3684210526315788,300,-300,600,left,right,,Nick,001,2021_Jul_19_1956,compare_lines,2021.2.0,59.995524333880994,
horizontal,0,0,0,0,40,0,160,0,,,,,,,,,,,,,499.94963839999997,None,500.45927950000004,None,501.4592456,None,down,0.48395670000002156,501.95920010000003,None,None,None,None,1.9473684210526314,1.9473684210526314,300,-300,600,right,left,,Nick,001,2021_Jul_19_1956,compare_lines,2021.2.0,59.995524333880994,
diagonal2,0,0,0,0,40,1,161,3,,,,,,,,,,,,,502.46605189999997,None,502.97586929999994,None,503.9765557,None,left,0.41679100000010294,504.475796,None,None,None,None,3.6842105263157894,2.1052631578947367,300,-300,600,right,left,,Nick,001,2021_Jul_19_1956,compare_lines,2021.2.0,59.995524333880994,
diagonal1,0,0,0,0,40,2,162,2,,,,,,,,,,,,,504.91581579999996,None,505.4259847,None,506.42567049999997,None,down,0.5638443000000279,506.92560469999995,None,None,None,None,2.7368421052631575,2.5789473684210527,300,-300,600,right,left,,Nick,001,2021_Jul_19_1956,compare_lines,2021.2.0,59.995524333880994,
vertical,0,0,0,0,40,3,163,1,,,,,,,,,,,,,507.51576029999995,None,508.0259117,None,509.0254825,None,down,0.6861855999999307,509.5254706,None,None,None,None,3.6842105263157894,3.6842105263157894,300,-300,600,left,right,,Nick,001,2021_Jul_19_1956,compare_lines,2021.2.0,59.995524333880994,
diagonal2,0,0,0,0,41,0,164,3,,,,,,,,,,,,,510.2322483,None,510.7420599,None,511.74203919999997,None,down,0.4977231999999958,512.2421621000001,None,None,None,None,1.3157894736842106,1.3157894736842106,300,-300,600,right,left,,Nick,001,2021_Jul_19_1956,compare_lines,2021.2.0,59.995524333880994,
diagonal1,0,0,0,0,41,1,165,2,,,,,,,,,,,,,512.7633911999999,None,513.2751625000001,None,514.2751854999999,None,left,0.535547000000065,514.7752146,None,None,None,None,3.052631578947368,1.7894736842105263,300,-300,600,left,right,,Nick,001,2021_Jul_19_1956,compare_lines,2021.2.0,59.995524333880994,
vertical,0,0,0,0,41,2,166,1,,,,,,,,,,,,,515.3329748000001,None,515.8417168000001,None,516.8416815,None,left,0.8049393999999666,517.3416789,None,None,None,None,2.1052631578947367,2.1052631578947367,300,-300,600,left,right,,Nick,001,2021_Jul_19_1956,compare_lines,2021.2.0,59.995524333880994,
horizontal,0,0,0,0,41,3,167,0,,,,,,,,,,,,,518.1808192999999,None,518.6915916999999,None,519.6927774999999,None,right,0.3810195000000931,520.1914592,None,None,None,None,1.3157894736842106,4.0,300,-300,600,left,right,,Nick,001,2021_Jul_19_1956,compare_lines,2021.2.0,59.995524333880994,
vertical,0,0,0,0,42,0,168,1,,,,,,,,,,,,,520.5956177,None,521.1087778000001,None,522.1080691,None,left,0.3675207999999657,522.6080385,None,None,None,None,2.5789473684210527,2.1052631578947367,300,-300,600,right,left,,Nick,001,2021_Jul_19_1956,compare_lines,2021.2.0,59.995524333880994,
diagonal1,0,0,0,0,42,1,169,2,,,,,,,,,,,,,522.9965557,None,523.5080184000001,None,524.5079429,None,right,0.5900585000000547,525.007881,None,None,None,None,3.8421052631578947,3.526315789473684,300,-300,600,right,left,,Nick,001,2021_Jul_19_1956,compare_lines,2021.2.0,59.995524333880994,
horizontal,0,0,0,0,42,2,170,0,,,,,,,,,,,,,525.6313565999999,None,526.1410456000001,None,527.1410897999999,None,down,0.6691636999998991,527.6410681,None,None,None,None,2.263157894736842,2.4210526315789473,300,-300,600,right,left,,Nick,001,2021_Jul_19_1956,compare_lines,2021.2.0,59.995524333880994,
diagonal2,0,0,0,0,42,3,171,3,,,,,,,,,,,,,528.3311788999999,None,528.8410306000001,None,529.8409475999999,None,right,0.619798400000036,530.3409827,None,None,None,None,1.4736842105263157,2.7368421052631575,300,-300,600,right,left,,Nick,001,2021_Jul_19_1956,compare_lines,2021.2.0,59.995524333880994,
vertical,0,0,0,0,43,0,172,1,,,,,,,,,,,,,530.9809849999999,None,531.4908401,None,532.4907934999999,None,left,0.9712446000000909,532.9908276000001,None,None,None,None,2.894736842105263,2.894736842105263,300,-300,600,right,left,,Nick,001,2021_Jul_19_1956,compare_lines,2021.2.0,59.995524333880994,
diagonal2,0,0,0,0,43,1,173,3,,,,,,,,,,,,,533.9941125999999,None,534.5078437,None,535.5072912999999,None,left,0.6528743000000077,536.0072372,None,None,None,None,2.263157894736842,1.4736842105263157,300,-300,600,left,right,,Nick,001,2021_Jul_19_1956,compare_lines,2021.2.0,59.995524333880994,
horizontal,0,0,0,0,43,2,174,0,,,,,,,,,,,,,536.6807699000001,None,537.1905285,None,538.1905088000001,None,down,0.8481360000000677,538.6904807000001,None,None,None,None,1.631578947368421,1.631578947368421,300,-300,600,right,left,,Nick,001,2021_Jul_19_1956,compare_lines,2021.2.0,59.995524333880994,
diagonal1,0,0,0,0,43,3,175,2,,,,,,,,,,,,,539.5639707,None,540.0736864999999,None,541.0736188000001,None,left,1.0402303999999276,541.5735932,None,None,None,None,3.2105263157894735,3.2105263157894735,300,-300,600,right,left,,Nick,001,2021_Jul_19_1956,compare_lines,2021.2.0,59.995524333880994,
vertical,0,0,0,0,44,0,176,1,,,,,,,,,,,,,542.6445616999999,None,543.156812,None,544.1567743,None,down,0.768493000000035,544.6567943,None,None,None,None,1.9473684210526314,1.4736842105263157,300,-300,600,left,right,,Nick,001,2021_Jul_19_1956,compare_lines,2021.2.0,59.995524333880994,
diagonal1,0,0,0,0,44,1,177,2,,,,,,,,,,,,,545.4441141,None,545.9566906,None,546.9566083,None,left,0.5040111000000707,547.4565763999999,None,None,None,None,4.0,2.5789473684210527,300,-300,600,right,left,,Nick,001,2021_Jul_19_1956,compare_lines,2021.2.0,59.995524333880994,
diagonal2,0,0,0,0,44,2,178,3,,,,,,,,,,,,,547.9937445999999,None,548.5067099,None,549.5064580000001,None,left,0.48747019999996155,550.0064652000001,None,None,None,None,3.8421052631578947,3.3684210526315788,300,-300,600,right,left,,Nick,001,2021_Jul_19_1956,compare_lines,2021.2.0,59.995524333880994,
horizontal,0,0,0,0,44,3,179,0,,,,,,,,,,,,,550.5268572,None,551.0396006999999,None,552.0397347,None,down,0.5645628999999417,552.5396622000001,None,None,None,None,1.4736842105263157,1.4736842105263157,300,-300,600,left,right,,Nick,001,2021_Jul_19_1956,compare_lines,2021.2.0,59.995524333880994,
horizontal,0,0,0,0,45,0,180,0,,,,,,,,,,,,,553.1268577999999,None,553.6394522999999,None,554.6395378,None,left,0.6897238000000243,555.1395184,None,None,None,None,2.7368421052631575,2.7368421052631575,300,-300,600,left,right,,Nick,001,2021_Jul_19_1956,compare_lines,2021.2.0,59.995524333880994,
vertical,0,0,0,0,45,1,181,1,,,,,,,,,,,,,555.8627053,None,556.3725801999999,None,557.3726583,None,right,0.4303615000000036,557.872656,None,None,None,None,2.1052631578947367,2.894736842105263,300,-300,600,left,right,,Nick,001,2021_Jul_19_1956,compare_lines,2021.2.0,59.995524333880994,
diagonal1,0,0,0,0,45,2,182,2,,,,,,,,,,,,,558.3271772999999,None,558.8391537,None,559.8392348,None,down,0.6304592000000184,560.3397418,None,None,None,None,1.9473684210526314,1.9473684210526314,300,-300,600,left,right,,Nick,001,2021_Jul_19_1956,compare_lines,2021.2.0,59.995524333880994,
diagonal2,0,0,0,0,45,3,183,3,,,,,,,,,,,,,560.993215,None,561.5059220999999,None,562.5057277999999,None,down,0.6514885999999933,563.0056626,None,None,None,None,1.3157894736842106,1.3157894736842106,300,-300,600,left,right,,Nick,001,2021_Jul_19_1956,compare_lines,2021.2.0,59.995524333880994,
horizontal,0,0,0,0,46,0,184,0,,,,,,,,,,,,,563.6791424999999,None,564.1889670999999,None,565.1889451,None,right,0.3881061999999247,565.688891,None,None,None,None,1.1578947368421053,2.5789473684210527,300,-300,600,left,right,,Nick,001,2021_Jul_19_1956,compare_lines,2021.2.0,59.995524333880994,
diagonal2,0,0,0,0,46,1,185,3,,,,,,,,,,,,,566.1093077,None,566.6221370999999,None,567.6221207000001,None,down,1.0140850999999884,568.1221115000001,None,None,None,None,1.0,1.0,300,-300,600,left,right,,Nick,001,2021_Jul_19_1956,compare_lines,2021.2.0,59.995524333880994,
diagonal1,0,0,0,0,46,2,186,2,,,,,,,,,,,,,569.1594190000001,None,569.6718401,None,570.6719224999999,None,left,0.7812920000000076,571.1719737999999,None,None,None,None,3.8421052631578947,2.5789473684210527,300,-300,600,left,right,,Nick,001,2021_Jul_19_1956,compare_lines,2021.2.0,59.995524333880994,
vertical,0,0,0,0,46,3,187,1,,,,,,,,,,,,,571.9793391000001,None,572.4884254000001,None,573.4884095,None,left,0.8035430999999562,573.9884976000001,None,None,None,None,2.263157894736842,1.3157894736842106,300,-300,600,left,right,,Nick,001,2021_Jul_19_1956,compare_lines,2021.2.0,59.995524333880994,
vertical,0,0,0,0,47,0,188,1,,,,,,,,,,,,,574.8092918,None,575.3225580999999,None,576.3216087000001,None,left,0.4744110000000319,576.8215066,None,None,None,None,3.2105263157894735,2.7368421052631575,300,-300,600,right,left,,Nick,001,2021_Jul_19_1956,compare_lines,2021.2.0,59.995524333880994,
diagonal1,0,0,0,0,47,1,189,2,,,,,,,,,,,,,577.3257853,None,577.8380463000001,None,578.8381578000001,None,down,0.8908607999999276,579.3380659,None,None,None,None,3.2105263157894735,4.0,300,-300,600,right,left,,Nick,001,2021_Jul_19_1956,compare_lines,2021.2.0,59.995524333880994,
horizontal,0,0,0,0,47,2,190,0,,,,,,,,,,,,,580.2625966,None,580.7712313,None,581.7713477,None,down,0.638106300000004,582.2712647000001,None,None,None,None,3.6842105263157894,2.894736842105263,300,-300,600,left,right,,Nick,001,2021_Jul_19_1956,compare_lines,2021.2.0,59.995524333880994,
diagonal2,0,0,0,0,47,3,191,3,,,,,,,,,,,,,582.9445008,None,583.4547706999999,None,584.4544796,None,down,0.7489468999999644,584.9548411000001,None,None,None,None,2.7368421052631575,2.7368421052631575,300,-300,600,left,right,,Nick,001,2021_Jul_19_1956,compare_lines,2021.2.0,59.995524333880994,
diagonal2,0,0,0,0,48,0,192,3,,,,,,,,,,,,,585.7281290999999,None,586.2376707000001,None,587.2376727999999,None,down,0.9351066000000401,587.7377125999999,None,None,None,None,4.0,4.0,300,-300,600,right,left,,Nick,001,2021_Jul_19_1956,compare_lines,2021.2.0,59.995524333880994,
diagonal1,0,0,0,0,48,1,193,2,,,,,,,,,,,,,588.6938241,None,589.2041363999999,None,590.2041643,None,down,0.4733374999999569,590.7043432,None,None,None,None,2.263157894736842,2.263157894736842,300,-300,600,left,right,,Nick,001,2021_Jul_19_1956,compare_lines,2021.2.0,59.995524333880994,
vertical,0,0,0,0,48,2,194,1,,,,,,,,,,,,,591.2086327,None,591.7211391999999,None,592.7208591000001,None,left,0.3772824000000128,593.2206116,None,None,None,None,3.052631578947368,1.0,300,-300,600,right,left,,Nick,001,2021_Jul_19_1956,compare_lines,2021.2.0,59.995524333880994,
horizontal,0,0,0,0,48,3,195,0,,,,,,,,,,,,,593.6275396000001,None,594.1371076,None,595.1371405,None,right,0.5993462000000136,595.6371263000001,None,None,None,None,3.6842105263157894,3.526315789473684,300,-300,600,left,right,,Nick,001,2021_Jul_19_1956,compare_lines,2021.2.0,59.995524333880994,
vertical,0,0,0,0,49,0,196,1,,,,,,,,,,,,,596.2613441999999,None,596.7704065999999,None,597.7703707999999,None,right,0.41983590000006643,598.2702727000001,None,None,None,None,1.9473684210526314,3.526315789473684,300,-300,600,left,right,,Nick,001,2021_Jul_19_1956,compare_lines,2021.2.0,59.995524333880994,
diagonal1,0,0,0,0,49,1,197,2,,,,,,,,,,,,,598.7077753000001,None,599.2201462999999,None,600.2202506000001,None,right,0.5740560000000414,600.7202318,None,None,None,None,2.1052631578947367,3.8421052631578947,300,-300,600,right,left,,Nick,001,2021_Jul_19_1956,compare_lines,2021.2.0,59.995524333880994,
diagonal2,0,0,0,0,49,2,198,3,,,,,,,,,,,,,601.3271477000001,None,601.8367929000001,None,602.836732,None,right,0.40544489999990674,603.3365707999999,None,None,None,None,1.9473684210526314,3.8421052631578947,300,-300,600,left,right,,Nick,001,2021_Jul_19_1956,compare_lines,2021.2.0,59.995524333880994,
horizontal,0,0,0,0,49,3,199,0,,,,,,,,,,,,,603.7799288000001,None,604.2866578000001,None,605.2865859000001,None,right,0.3236325999999963,605.7865500999999,None,None,None,None,1.9473684210526314,3.2105263157894735,300,-300,600,left,right,,Nick,001,2021_Jul_19_1956,compare_lines,2021.2.0,59.995524333880994,
diagonal1,0,0,0,0,50,0,200,2,,,,,,,,,,,,,606.1437226999999,None,606.654086,None,607.6530926999999,None,left,0.439177299999983,608.1531709000001,None,None,None,None,2.5789473684210527,1.7894736842105263,300,-300,600,left,right,,Nick,001,2021_Jul_19_1956,compare_lines,2021.2.0,59.995524333880994,
vertical,0,0,0,0,50,1,201,1,,,,,,,,,,,,,608.6266659,None,609.1363661,None,610.1362971000001,None,down,0.6595332999999073,610.6364421000001,None,None,None,None,2.263157894736842,2.263157894736842,300,-300,600,left,right,,Nick,001,2021_Jul_19_1956,compare_lines,2021.2.0,59.995524333880994,
diagonal2,0,0,0,0,50,2,202,3,,,,,,,,,,,,,611.3266263,None,611.8362526999999,None,612.836155,None,left,0.4627181999999266,613.3360772999999,None,None,None,None,3.6842105263157894,3.052631578947368,300,-300,600,right,left,,Nick,001,2021_Jul_19_1956,compare_lines,2021.2.0,59.995524333880994,
horizontal,0,0,0,0,50,3,203,0,,,,,,,,,,,,,613.8272133,None,614.3358836,None,615.3359813,None,right,0.6768781999999192,615.835963,None,None,None,None,1.0,1.9473684210526314,300,-300,600,right,left,,Nick,001,2021_Jul_19_1956,compare_lines,2021.2.0,59.995524333880994,
diagonal2,0,0,0,0,51,0,204,3,,,,,,,,,,,,,616.5426069,None,617.0525666999999,None,618.0525273000001,None,right,0.6984843000000183,618.5524656,None,None,None,None,1.1578947368421053,1.1578947368421053,300,-300,600,right,left,,Nick,001,2021_Jul_19_1956,compare_lines,2021.2.0,59.995524333880994,
horizontal,0,0,0,0,51,1,205,0,,,,,,,,,,,,,619.2760492,None,619.7857366999999,None,620.7856824,None,right,0.5173000999999431,621.2856609999999,None,None,None,None,3.8421052631578947,3.6842105263157894,300,-300,600,left,right,,Nick,001,2021_Jul_19_1956,compare_lines,2021.2.0,59.995524333880994,
vertical,0,0,0,0,51,2,206,1,,,,,,,,,,,,,621.8230374,None,622.3356391,None,623.3355345,None,down,0.7961816999999201,623.8355031000001,None,None,None,None,3.526315789473684,3.526315789473684,300,-300,600,right,left,,Nick,001,2021_Jul_19_1956,compare_lines,2021.2.0,59.995524333880994,
diagonal1,0,0,0,0,51,3,207,2,,,,,,,,,,,,,624.6586554,None,625.1689302,None,626.1686678000001,None,right,0.4624307000000272,626.6686705,None,None,None,None,2.1052631578947367,2.7368421052631575,300,-300,600,left,right,,Nick,001,2021_Jul_19_1956,compare_lines,2021.2.0,59.995524333880994,
diagonal1,0,0,0,0,52,0,208,2,,,,,,,,,,,,,627.160038,None,627.6685898999999,None,628.668617,None,left,0.422506799999951,629.1689108999999,None,None,None,None,2.7368421052631575,1.1578947368421053,300,-300,600,right,left,,Nick,001,2021_Jul_19_1956,compare_lines,2021.2.0,59.995524333880994,
diagonal2,0,0,0,0,52,1,209,3,,,,,,,,,,,,,629.6249118000001,None,630.1350772999999,None,631.1350387,None,down,0.7788161999999375,631.6350293999999,None,None,None,None,1.7894736842105263,2.263157894736842,300,-300,600,left,right,,Nick,001,2021_Jul_19_1956,compare_lines,2021.2.0,59.995524333880994,
vertical,0,0,0,0,52,2,210,1,,,,,,,,,,,,,632.4421225000001,None,632.9516923000001,None,633.9517351,None,left,0.6110026999999718,634.4515389000001,None,None,None,None,3.3684210526315788,3.3684210526315788,300,-300,600,right,left,,Nick,001,2021_Jul_19_1956,compare_lines,2021.2.0,59.995524333880994,
horizontal,0,0,0,0,52,3,211,0,,,,,,,,,,,,,635.0903599000001,None,635.601498,None,636.6014167999999,None,right,0.44394339999996646,637.1013942,None,None,None,None,1.7894736842105263,3.8421052631578947,300,-300,600,left,right,,Nick,001,2021_Jul_19_1956,compare_lines,2021.2.0,59.995524333880994,
diagonal2,0,0,0,0,53,0,212,3,,,,,,,,,,,,,637.5749025,None,638.0845694,None,639.0846058,None,down,0.590756400000032,639.5846042999999,None,None,None,None,1.0,1.0,300,-300,600,right,left,,Nick,001,2021_Jul_19_1956,compare_lines,2021.2.0,59.995524333880994,
vertical,0,0,0,0,53,1,213,1,,,,,,,,,,,,,640.2080226,None,640.7177231000001,None,641.7178518000001,None,right,0.5104795999999396,642.2179120999999,None,None,None,None,2.7368421052631575,2.7368421052631575,300,-300,600,left,right,,Nick,001,2021_Jul_19_1956,compare_lines,2021.2.0,59.995524333880994,
horizontal,0,0,0,0,53,2,214,0,,,,,,,,,,,,,642.7581958999999,None,643.2675973999999,None,644.2676400999999,None,right,0.7000110999999833,644.7675363999999,None,None,None,None,3.3684210526315788,2.894736842105263,300,-300,600,left,right,,Nick,001,2021_Jul_19_1956,compare_lines,2021.2.0,59.995524333880994,
diagonal1,0,0,0,0,53,3,215,2,,,,,,,,,,,,,645.4913612,None,646.0008820999999,None,647.0009809999999,None,down,0.6616520999999693,647.5008108,None,None,None,None,3.6842105263157894,2.263157894736842,300,-300,600,left,right,,Nick,001,2021_Jul_19_1956,compare_lines,2021.2.0,59.995524333880994,
diagonal2,0,0,0,0,54,0,216,3,,,,,,,,,,,,,648.1882674000001,None,648.7011276000001,None,649.7011399,None,right,0.5123677000000271,650.2006566,None,None,None,None,1.3157894736842106,3.3684210526315788,300,-300,600,right,left,,Nick,001,2021_Jul_19_1956,compare_lines,2021.2.0,59.995524333880994,
diagonal1,0,0,0,0,54,1,217,2,,,,,,,,,,,,,650.7411758999999,None,651.2506178000001,None,652.2505126000001,None,down,0.9164851000000453,652.7520560999999,None,None,None,None,3.8421052631578947,3.2105263157894735,300,-300,600,left,right,,Nick,001,2021_Jul_19_1956,compare_lines,2021.2.0,59.995524333880994,
vertical,0,0,0,0,54,2,218,1,,,,,,,,,,,,,653.6958161,None,654.2007332000001,None,655.2020662,None,down,0.5797491999999238,655.7182112,None,None,None,None,4.0,3.052631578947368,300,-300,600,right,left,,Nick,001,2021_Jul_19_1956,compare_lines,2021.2.0,59.995524333880994,
horizontal,0,0,0,0,54,3,219,0,,,,,,,,,,,,,656.3267386,None,656.8344500999999,None,657.8340717000001,None,down,0.6345896999999923,658.3337148,None,None,None,None,2.4210526315789473,2.4210526315789473,300,-300,600,right,left,,Nick,001,2021_Jul_19_1956,compare_lines,2021.2.0,59.995524333880994,
horizontal,0,0,0,0,55,0,220,0,,,,,,,,,,,,,658.9902725,None,659.5021964,None,660.5003288999999,None,right,0.7364589000000024,661.0002563999999,None,None,None,None,2.7368421052631575,3.3684210526315788,300,-300,600,right,left,,Nick,001,2021_Jul_19_1956,compare_lines,2021.2.0,59.995524333880994,
vertical,0,0,0,0,55,1,221,1,,,,,,,,,,,,,661.7600413,None,662.2668374,None,663.2667673999999,None,right,0.7402878999999984,663.7667306999999,None,None,None,None,2.5789473684210527,2.894736842105263,300,-300,600,right,left,,Nick,001,2021_Jul_19_1956,compare_lines,2021.2.0,59.995524333880994,
diagonal2,0,0,0,0,55,2,222,3,,,,,,,,,,,,,664.5408471000001,None,665.0500407,None,666.0499633,None,left,0.5675972000000229,666.5498921000001,None,None,None,None,3.052631578947368,2.1052631578947367,300,-300,600,right,left,,Nick,001,2021_Jul_19_1956,compare_lines,2021.2.0,59.995524333880994,
diagonal1,0,0,0,0,55,3,223,2,,,,,,,,,,,,,667.1384982,None,667.6503935000001,None,668.6497876000001,None,right,0.6967300000000023,669.1496354000001,None,None,None,None,3.3684210526315788,3.6842105263157894,300,-300,600,right,left,,Nick,001,2021_Jul_19_1956,compare_lines,2021.2.0,59.995524333880994,
vertical,0,0,0,0,56,0,224,1,,,,,,,,,,,,,669.8739192999999,None,670.3829453999999,None,671.3833010000001,None,right,0.43941589999997177,671.8832365999999,None,None,None,None,2.5789473684210527,3.052631578947368,300,-300,600,left,right,,Nick,001,2021_Jul_19_1956,compare_lines,2021.2.0,59.995524333880994,
diagonal2,0,0,0,0,56,1,225,3,,,,,,,,,,,,,672.3537028999999,None,672.8662823,None,673.8661254000001,None,down,0.6518995999999788,674.3664126000001,None,None,None,None,1.9473684210526314,2.1052631578947367,300,-300,600,left,right,,Nick,001,2021_Jul_19_1956,compare_lines,2021.2.0,59.995524333880994,
diagonal1,0,0,0,0,56,2,226,2,,,,,,,,,,,,,675.0397439999999,None,675.5494219,None,676.5494156,None,right,0.38790289999997185,677.0493488,None,None,None,None,1.7894736842105263,4.0,300,-300,600,left,right,,Nick,001,2021_Jul_19_1956,compare_lines,2021.2.0,59.995524333880994,
horizontal,0,0,0,0,56,3,227,0,,,,,,,,,,,,,677.4761693,None,677.9827008,None,678.9830073,None,left,0.503053100000102,679.4825742999999,None,None,None,None,4.0,2.1052631578947367,300,-300,600,left,right,,Nick,001,2021_Jul_19_1956,compare_lines,2021.2.0,59.995524333880994,
diagonal1,0,0,0,0,57,0,228,2,,,,,,,,,,,,,680.0062174,None,680.5158546,None,681.5156858,None,right,0.8025875999999244,682.0159587,None,None,None,None,4.0,3.8421052631578947,300,-300,600,left,right,,Nick,001,2021_Jul_19_1956,compare_lines,2021.2.0,59.995524333880994,
vertical,0,0,0,0,57,1,229,1,,,,,,,,,,,,,682.8394656,None,683.3491041,None,684.3490672999999,None,right,0.3809704000000238,684.8487001000001,None,None,None,None,1.631578947368421,2.7368421052631575,300,-300,600,left,right,,Nick,001,2021_Jul_19_1956,compare_lines,2021.2.0,59.995524333880994,
diagonal2,0,0,0,0,57,2,230,3,,,,,,,,,,,,,685.2575942000001,None,685.7661166,None,686.7655055,None,right,0.5189129999999977,687.2655421,None,None,None,None,2.5789473684210527,3.6842105263157894,300,-300,600,right,left,,Nick,001,2021_Jul_19_1956,compare_lines,2021.2.0,59.995524333880994,
horizontal,0,0,0,0,57,3,231,0,,,,,,,,,,,,,687.8048997000001,None,688.315445,None,689.3153562,None,down,0.6162653999999748,689.8158779999999,None,None,None,None,2.1052631578947367,2.263157894736842,300,-300,600,right,left,,Nick,001,2021_Jul_19_1956,compare_lines,2021.2.0,59.995524333880994,
diagonal1,0,0,0,0,58,0,232,2,,,,,,,,,,,,,690.4569265,None,690.9652344000001,None,691.9658205999999,None,down,0.9418539000000692,692.4650761999999,None,None,None,None,1.1578947368421053,1.1578947368421053,300,-300,600,right,left,,Nick,001,2021_Jul_19_1956,compare_lines,2021.2.0,59.995524333880994,
horizontal,0,0,0,0,58,1,233,0,,,,,,,,,,,,,693.4388931999999,None,693.9485456,None,694.9484448000001,None,down,0.7018382999999631,695.4483903999999,None,None,None,None,2.894736842105263,3.8421052631578947,300,-300,600,right,left,,Nick,001,2021_Jul_19_1956,compare_lines,2021.2.0,59.995524333880994,
diagonal2,0,0,0,0,58,2,234,3,,,,,,,,,,,,,696.1726008,None,696.6817194,None,697.6815260999999,None,left,0.6241138000000319,698.181675,None,None,None,None,3.2105263157894735,3.6842105263157894,300,-300,600,right,left,,Nick,001,2021_Jul_19_1956,compare_lines,2021.2.0,59.995524333880994,
vertical,0,0,0,0,58,3,235,1,,,,,,,,,,,,,698.8390704999999,None,699.3504857,None,700.3479520000001,None,down,0.5536991000000171,700.8478765,None,None,None,None,2.263157894736842,2.263157894736842,300,-300,600,left,right,,Nick,001,2021_Jul_19_1956,compare_lines,2021.2.0,59.995524333880994,
diagonal2,0,0,0,0,59,0,236,3,,,,,,,,,,,,,701.4233039000001,None,701.9312161,None,702.9312167999999,None,down,0.2296221000000287,703.4310218999999,None,None,None,None,2.5789473684210527,1.4736842105263157,300,-300,600,right,left,,Nick,001,2021_Jul_19_1956,compare_lines,2021.2.0,59.995524333880994,
horizontal,0,0,0,0,59,1,237,0,,,,,,,,,,,,,703.6907550000001,None,704.1979905000001,None,705.1979171,None,down,0.4290077000000565,705.6978953,None,None,None,None,1.4736842105263157,1.4736842105263157,300,-300,600,left,right,,Nick,001,2021_Jul_19_1956,compare_lines,2021.2.0,59.995524333880994,
diagonal1,0,0,0,0,59,2,238,2,,,,,,,,,,,,,706.1557416999999,None,706.6663361999999,None,707.6642465,None,down,0.6288117000000284,708.1644128999999,None,None,None,None,2.4210526315789473,1.9473684210526314,300,-300,600,right,left,,Nick,001,2021_Jul_19_1956,compare_lines,2021.2.0,59.995524333880994,
vertical,0,0,0,0,59,3,239,1,,,,,,,,,,,,,708.8227741000001,None,709.3306560999999,None,710.3308087,None,left,0.5679202000000032,710.830839,None,None,None,None,3.6842105263157894,3.6842105263157894,300,-300,600,right,left,,Nick,001,2021_Jul_19_1956,compare_lines,2021.2.0,59.995524333880994,
vertical,0,0,0,0,60,0,240,1,,,,,,,,,,,,,711.4221855000001,None,711.9305890999999,None,712.9305239,None,down,0.5428911999999855,713.4307455999999,None,None,None,None,1.4736842105263157,2.1052631578947367,300,-300,600,left,right,,Nick,001,2021_Jul_19_1956,compare_lines,2021.2.0,59.995524333880994,
horizontal,0,0,0,0,60,1,241,0,,,,,,,,,,,,,714.0033269,None,714.5139861,None,715.5138056999999,None,down,0.60956699999997,716.0136732999999,None,None,None,None,3.8421052631578947,3.8421052631578947,300,-300,600,right,left,,Nick,001,2021_Jul_19_1956,compare_lines,2021.2.0,59.995524333880994,
diagonal2,0,0,0,0,60,2,242,3,,,,,,,,,,,,,716.6545742000001,None,717.1638476,None,718.1635663,None,down,0.9175597999999354,718.6636375999999,None,None,None,None,1.631578947368421,1.631578947368421,300,-300,600,right,left,,Nick,001,2021_Jul_19_1956,compare_lines,2021.2.0,59.995524333880994,
diagonal1,0,0,0,0,60,3,243,2,,,,,,,,,,,,,719.6047593999999,None,720.1134357999999,None,721.1134529999999,None,right,0.37773759999993217,721.6134668,None,None,None,None,2.894736842105263,2.894736842105263,300,-300,600,left,right,,Nick,001,2021_Jul_19_1956,compare_lines,2021.2.0,59.995524333880994,
diagonal2,0,0,0,0,61,0,244,3,,,,,,,,,,,,,722.0241739999999,None,722.5306195999999,None,723.5302096999999,None,right,0.5478461999999809,724.0298247999999,None,None,None,None,3.526315789473684,3.2105263157894735,300,-300,600,left,right,,Nick,001,2021_Jul_19_1956,compare_lines,2021.2.0,59.995524333880994,
diagonal1,0,0,0,0,61,1,245,2,,,,,,,,,,,,,724.6045933999999,None,725.1138894999999,None,726.1131299000001,None,left,0.37033950000000004,726.6132416999999,None,None,None,None,3.8421052631578947,1.3157894736842106,300,-300,600,right,left,,Nick,001,2021_Jul_19_1956,compare_lines,2021.2.0,59.995524333880994,
vertical,0,0,0,0,61,2,246,1,,,,,,,,,,,,,727.0051968,None,727.5136008,None,728.5127762,None,right,0.38396269999998367,729.0129548,None,None,None,None,1.1578947368421053,3.2105263157894735,300,-300,600,left,right,,Nick,001,2021_Jul_19_1956,compare_lines,2021.2.0,59.995524333880994,
horizontal,0,0,0,0,61,3,247,0,,,,,,,,,,,,,729.4245186,None,729.9295749999999,None,730.9297841,None,down,0.8708603999999696,731.4293683000001,None,None,None,None,3.3684210526315788,3.3684210526315788,300,-300,600,right,left,,Nick,001,2021_Jul_19_1956,compare_lines,2021.2.0,59.995524333880994,
diagonal2,0,0,0,0,62,0,248,3,,,,,,,,,,,,,732.3211698,None,732.8295693,None,733.8293693,None,right,0.5297138000000814,734.3291317000001,None,None,None,None,3.052631578947368,3.052631578947368,300,-300,600,left,right,,Nick,001,2021_Jul_19_1956,compare_lines,2021.2.0,59.995524333880994,
diagonal1,0,0,0,0,62,1,249,2,,,,,,,,,,,,,734.8919785999999,None,735.3965677000001,None,736.3958321,None,down,0.47460079999996196,736.8960301,None,None,None,None,1.3157894736842106,1.0,300,-300,600,left,right,,Nick,001,2021_Jul_19_1956,compare_lines,2021.2.0,59.995524333880994,
vertical,0,0,0,0,62,2,250,1,,,,,,,,,,,,,737.4052615,None,737.9157648,None,738.9122422,None,down,0.3952434999999923,739.4127169000001,None,None,None,None,2.5789473684210527,2.5789473684210527,300,-300,600,right,left,,Nick,001,2021_Jul_19_1956,compare_lines,2021.2.0,59.995524333880994,
horizontal,0,0,0,0,62,3,251,0,,,,,,,,,,,,,739.8425984999999,None,740.3456275000001,None,741.3457458999999,None,right,0.528769900000043,741.845587,None,None,None,None,2.4210526315789473,2.7368421052631575,300,-300,600,left,right,,Nick,001,2021_Jul_19_1956,compare_lines,2021.2.0,59.995524333880994,
diagonal2,0,0,0,0,63,0,252,3,,,,,,,,,,,,,742.4028255999999,None,742.9126592,None,743.9125002000001,None,down,0.4987141999999949,744.4133437,None,None,None,None,1.7894736842105263,2.1052631578947367,300,-300,600,left,right,,Nick,001,2021_Jul_19_1956,compare_lines,2021.2.0,59.995524333880994,
diagonal1,0,0,0,0,63,1,253,2,,,,,,,,,,,,,744.9456135999999,None,745.4485706999999,None,746.4625266,None,right,0.4468694999999343,746.9633781,None,None,None,None,1.631578947368421,4.0,300,-300,600,right,left,,Nick,001,2021_Jul_19_1956,compare_lines,2021.2.0,59.995524333880994,
vertical,0,0,0,0,63,2,254,1,,,,,,,,,,,,,747.4380880000001,None,747.9454358,None,748.9452306000001,None,down,0.4549966999999242,749.4453732,None,None,None,None,1.1578947368421053,1.1578947368421053,300,-300,600,left,right,,Nick,001,2021_Jul_19_1956,compare_lines,2021.2.0,59.995524333880994,
horizontal,0,0,0,0,63,3,255,0,,,,,,,,,,,,,749.9342750999999,None,750.4451466999999,None,751.444753,None,down,0.44991010000001097,751.9452527999999,None,None,None,None,1.1578947368421053,1.7894736842105263,300,-300,600,left,right,,Nick,001,2021_Jul_19_1956,compare_lines,2021.2.0,59.995524333880994,
diagonal1,0,0,0,0,64,0,256,2,,,,,,,,,,,,,752.4185138999999,None,752.9284669000001,None,753.928019,None,down,0.6510762999999997,754.4283426,None,None,None,None,2.5789473684210527,1.631578947368421,300,-300,600,left,right,,Nick,001,2021_Jul_19_1956,compare_lines,2021.2.0,59.995524333880994,
diagonal2,0,0,0,0,64,1,257,3,,,,,,,,,,,,,755.1050358,None,755.6124076000001,None,756.6128002,None,right,0.5793025000000398,757.1280947,None,None,None,None,3.526315789473684,4.0,300,-300,600,left,right,,Nick,001,2021_Jul_19_1956,compare_lines,2021.2.0,59.995524333880994,
vertical,0,0,0,0,64,2,258,1,,,,,,,,,,,,,757.7349939000001,None,758.2446465,None,759.2445926,None,down,0.6220534000000271,759.7446792000001,None,None,None,None,2.4210526315789473,2.1052631578947367,300,-300,600,right,left,,Nick,001,2021_Jul_19_1956,compare_lines,2021.2.0,59.995524333880994,
horizontal,0,0,0,0,64,3,259,0,,,,,,,,,,,,,760.4009971999999,None,760.9110464,None,761.9112722999998,None,left,0.7141515000000709,762.4110466,None,None,None,None,3.8421052631578947,3.8421052631578947,300,-300,600,left,right,,Nick,001,2021_Jul_19_1956,compare_lines,2021.2.0,59.995524333880994,
horizontal,0,0,0,0,65,0,260,0,,,,,,,,,,,,,763.1561127,None,763.6611281999999,None,764.6620261,None,left,0.3979640999998537,765.1772704,None,None,None,None,3.2105263157894735,2.1052631578947367,300,-300,600,right,left,,Nick,001,2021_Jul_19_1956,compare_lines,2021.2.0,59.995524333880994,
vertical,0,0,0,0,65,1,261,1,,,,,,,,,,,,,765.6020374999998,None,766.1110667,None,767.1108162999999,None,left,0.620252199999868,767.6106560999999,None,None,None,None,3.526315789473684,2.4210526315789473,300,-300,600,left,right,,Nick,001,2021_Jul_19_1956,compare_lines,2021.2.0,59.995524333880994,
diagonal1,0,0,0,0,65,2,262,2,,,,,,,,,,,,,768.2514259,None,768.7608175999999,None,769.7611669,None,right,0.44537629999990713,770.2603993,None,None,None,None,1.4736842105263157,4.0,300,-300,600,right,left,,Nick,001,2021_Jul_19_1956,compare_lines,2021.2.0,59.995524333880994,
diagonal2,0,0,0,0,65,3,263,3,,,,,,,,,,,,,770.7355654,None,771.2440233999998,None,772.243962,None,down,0.6017683000000034,772.7439018,None,None,None,None,3.052631578947368,3.052631578947368,300,-300,600,right,left,,Nick,001,2021_Jul_19_1956,compare_lines,2021.2.0,59.995524333880994,
vertical,0,0,0,0,66,0,264,1,,,,,,,,,,,,,773.3678708999998,None,773.8771729999999,None,774.8769953999999,None,down,0.5744715000000724,775.377551,None,None,None,None,3.526315789473684,3.526315789473684,300,-300,600,right,left,,Nick,001,2021_Jul_19_1956,compare_lines,2021.2.0,59.995524333880994,
horizontal,0,0,0,0,66,1,265,0,,,,,,,,,,,,,775.9841589999999,None,776.4936375,None,777.4933991999999,None,down,0.4797761999998329,777.9938597,None,None,None,None,2.263157894736842,2.263157894736842,300,-300,600,left,right,,Nick,001,2021_Jul_19_1956,compare_lines,2021.2.0,59.995524333880994,
diagonal1,0,0,0,0,66,2,266,2,,,,,,,,,,,,,778.5010316999999,None,779.0098849999999,None,780.0102082999999,None,left,0.39990209999996296,780.5102376999998,None,None,None,None,3.6842105263157894,1.0,300,-300,600,left,right,,Nick,001,2021_Jul_19_1956,compare_lines,2021.2.0,59.995524333880994,
diagonal2,0,0,0,0,66,3,267,3,,,,,,,,,,,,,780.9339533,None,781.4432761999999,None,782.4430645999998,None,down,0.5825910000000931,782.9431178999998,None,None,None,None,2.263157894736842,2.263157894736842,300,-300,600,right,left,,Nick,001,2021_Jul_19_1956,compare_lines,2021.2.0,59.995524333880994,
horizontal,0,0,0,0,67,0,268,0,,,,,,,,,,,,,783.5513495,None,784.0598551999999,None,785.0596733,None,right,0.3828968000000259,785.559753,None,None,None,None,1.3157894736842106,2.894736842105263,300,-300,600,left,right,,Nick,001,2021_Jul_19_1956,compare_lines,2021.2.0,59.995524333880994,
diagonal2,0,0,0,0,67,1,269,3,,,,,,,,,,,,,785.9688305,None,786.4762671999999,None,787.4760535999999,None,right,0.3712315000000217,787.9762837999999,None,None,None,None,2.4210526315789473,2.4210526315789473,300,-300,600,left,right,,Nick,001,2021_Jul_19_1956,compare_lines,2021.2.0,59.995524333880994,
diagonal1,0,0,0,0,67,2,270,2,,,,,,,,,,,,,788.3674787,None,788.8763375999999,None,789.8762454999999,None,down,0.5253037999998469,790.3759241,None,None,None,None,3.052631578947368,3.2105263157894735,300,-300,600,right,left,,Nick,001,2021_Jul_19_1956,compare_lines,2021.2.0,59.995524333880994,
vertical,0,0,0,0,67,3,271,1,,,,,,,,,,,,,790.9338687,None,791.4425403999999,None,792.4426231999998,None,down,0.4770487000000685,792.9426698,None,None,None,None,1.1578947368421053,2.263157894736842,300,-300,600,right,left,,Nick,001,2021_Jul_19_1956,compare_lines,2021.2.0,59.995524333880994,
horizontal,0,0,0,0,68,0,272,0,,,,,,,,,,,,,793.4492911,None,793.9599805999999,None,794.9590054999999,None,down,0.5528939999999238,795.4589681,None,None,None,None,4.0,2.7368421052631575,300,-300,600,left,right,,Nick,001,2021_Jul_19_1956,compare_lines,2021.2.0,59.995524333880994,
diagonal1,0,0,0,0,68,1,273,2,,,,,,,,,,,,,796.0346003,None,796.5423592,None,797.5423163999999,None,down,0.49806790000002366,798.0423642999999,None,None,None,None,2.4210526315789473,2.4210526315789473,300,-300,600,right,left,,Nick,001,2021_Jul_19_1956,compare_lines,2021.2.0,59.995524333880994,
vertical,0,0,0,0,68,2,274,1,,,,,,,,,,,,,798.565501,None,799.0760376999999,None,800.0753662,None,down,0.3934355000001233,800.5756546,None,None,None,None,3.6842105263157894,3.6842105263157894,300,-300,600,right,left,,Nick,001,2021_Jul_19_1956,compare_lines,2021.2.0,59.995524333880994,
diagonal2,0,0,0,0,68,3,275,3,,,,,,,,,,,,,801.0008865999998,None,801.508456,None,802.5087059,None,right,0.31411640000010266,803.0085162999999,None,None,None,None,1.3157894736842106,3.6842105263157894,300,-300,600,left,right,,Nick,001,2021_Jul_19_1956,compare_lines,2021.2.0,59.995524333880994,
diagonal2,0,0,0,0,69,0,276,3,,,,,,,,,,,,,803.3486229999999,None,803.8584188,None,804.8583291999998,None,left,0.5106743999999708,805.3583404999999,None,None,None,None,3.8421052631578947,1.1578947368421053,300,-300,600,left,right,,Nick,001,2021_Jul_19_1956,compare_lines,2021.2.0,59.995524333880994,
diagonal1,0,0,0,0,69,1,277,2,,,,,,,,,,,,,805.8996006,None,806.4081541,None,807.4082125,None,right,0.46329209999998966,807.9083877,None,None,None,None,1.3157894736842106,2.4210526315789473,300,-300,600,left,right,,Nick,001,2021_Jul_19_1956,compare_lines,2021.2.0,59.995524333880994,
horizontal,0,0,0,0,69,2,278,0,,,,,,,,,,,,,808.3983567,None,808.9081117999999,None,809.9081246999999,None,left,0.5335680000000593,810.4080200999999,None,None,None,None,3.8421052631578947,1.0,300,-300,600,left,right,,Nick,001,2021_Jul_19_1956,compare_lines,2021.2.0,59.995524333880994,
vertical,0,0,0,0,69,3,279,1,,,,,,,,,,,,,810.9653337,None,811.4747345999999,None,812.4745654999999,None,left,0.4178609000000506,812.9745429,None,None,None,None,2.5789473684210527,2.5789473684210527,300,-300,600,right,left,,Nick,001,2021_Jul_19_1956,compare_lines,2021.2.0,59.995524333880994,
diagonal1,0,0,0,0,70,0,280,2,,,,,,,,,,,,,813.414814,None,813.924362,None,814.9244575999999,None,down,0.6703299000000698,815.4244060999999,None,None,None,None,3.2105263157894735,3.2105263157894735,300,-300,600,left,right,,Nick,001,2021_Jul_19_1956,compare_lines,2021.2.0,59.995524333880994,
diagonal2,0,0,0,0,70,1,281,3,,,,,,,,,,,,,816.1147693999999,None,816.6242075999999,None,817.6243669999999,None,down,0.4671400000001995,818.1243327,None,None,None,None,2.5789473684210527,2.5789473684210527,300,-300,600,left,right,,Nick,001,2021_Jul_19_1956,compare_lines,2021.2.0,59.995524333880994,
horizontal,0,0,0,0,70,2,282,0,,,,,,,,,,,,,818.6156122999998,None,819.1242052,None,820.1241900999999,None,down,0.4696097999999438,820.6241150999999,None,None,None,None,1.3157894736842106,1.631578947368421,300,-300,600,right,left,,Nick,001,2021_Jul_19_1956,compare_lines,2021.2.0,59.995524333880994,
vertical,0,0,0,0,70,3,283,1,,,,,,,,,,,,,821.1127466999999,None,821.6243998999998,None,822.6239785,None,down,0.5808466000000863,823.1238083999999,None,None,None,None,1.1578947368421053,2.4210526315789473,300,-300,600,left,right,,Nick,001,2021_Jul_19_1956,compare_lines,2021.2.0,59.995524333880994,
vertical,0,0,0,0,71,0,284,1,,,,,,,,,,,,,823.7307833999998,None,824.2405448,None,825.2405425,None,down,0.5043842000000041,825.7404867999999,None,None,None,None,1.9473684210526314,1.9473684210526314,300,-300,600,right,left,,Nick,001,2021_Jul_19_1956,compare_lines,2021.2.0,59.995524333880994,
diagonal2,0,0,0,0,71,1,285,3,,,,,,,,,,,,,826.2801436999998,None,826.7904315999999,None,827.7904613999999,None,right,0.5365421999999853,828.2903615999999,None,None,None,None,1.0,2.1052631578947367,300,-300,600,left,right,,Nick,001,2021_Jul_19_1956,compare_lines,2021.2.0,59.995524333880994,
diagonal1,0,0,0,0,71,2,286,2,,,,,,,,,,,,,828.8472565,None,829.3569410999999,None,830.3568957,None,left,0.628244900000027,830.8572319999998,None,None,None,None,2.7368421052631575,1.7894736842105263,300,-300,600,right,left,,Nick,001,2021_Jul_19_1956,compare_lines,2021.2.0,59.995524333880994,
horizontal,0,0,0,0,71,3,287,0,,,,,,,,,,,,,831.5137187,None,832.0234774,None,833.0234885999998,None,down,0.5562657000000399,833.5233865,None,None,None,None,2.5789473684210527,2.5789473684210527,300,-300,600,right,left,,Nick,001,2021_Jul_19_1956,compare_lines,2021.2.0,59.995524333880994,
diagonal2,0,0,0,0,72,0,288,3,,,,,,,,,,,,,834.1137004,None,834.6231920999999,None,835.6238744,None,down,0.6181951000000936,836.1235279,None,None,None,None,3.6842105263157894,3.6842105263157894,300,-300,600,left,right,,Nick,001,2021_Jul_19_1956,compare_lines,2021.2.0,59.995524333880994,
diagonal1,0,0,0,0,72,1,289,2,,,,,,,,,,,,,836.7623357,None,837.2736161999999,None,838.273291,None,down,0.5810984999998254,838.7730388999998,None,None,None,None,3.3684210526315788,3.3684210526315788,300,-300,600,left,right,,Nick,001,2021_Jul_19_1956,compare_lines,2021.2.0,59.995524333880994,
vertical,0,0,0,0,72,2,290,1,,,,,,,,,,,,,839.3799345999998,None,839.8896525,None,840.8896,None,left,0.4816187000001264,841.3895885,None,None,None,None,2.5789473684210527,1.7894736842105263,300,-300,600,right,left,,Nick,001,2021_Jul_19_1956,compare_lines,2021.2.0,59.995524333880994,
horizontal,0,0,0,0,72,3,291,0,,,,,,,,,,,,,841.8966908999998,None,842.4061391999999,None,843.4061446999999,None,down,0.46063709999998537,843.9060640999999,None,None,None,None,1.0,1.0,300,-300,600,right,left,,Nick,001,2021_Jul_19_1956,compare_lines,2021.2.0,59.995524333880994,
vertical,0,0,0,0,73,0,292,1,,,,,,,,,,,,,844.3962652,None,844.9060145999999,None,845.9060493,None,down,0.793829100000039,846.4060519,None,None,None,None,2.894736842105263,3.526315789473684,300,-300,600,right,left,,Nick,001,2021_Jul_19_1956,compare_lines,2021.2.0,59.995524333880994,
diagonal2,0,0,0,0,73,1,293,3,,,,,,,,,,,,,847.2295342999998,None,847.7391619,None,848.7392014,None,down,0.46364269999980934,849.2391507,None,None,None,None,2.894736842105263,1.9473684210526314,300,-300,600,left,right,,Nick,001,2021_Jul_19_1956,compare_lines,2021.2.0,59.995524333880994,
horizontal,0,0,0,0,73,2,294,0,,,,,,,,,,,,,849.7293705,None,850.2389108,None,851.2389773999998,None,right,0.5276446000000306,851.739006,None,None,None,None,2.894736842105263,3.8421052631578947,300,-300,600,left,right,,Nick,001,2021_Jul_19_1956,compare_lines,2021.2.0,59.995524333880994,
diagonal1,0,0,0,0,73,3,295,2,,,,,,,,,,,,,852.296272,None,852.8056976,None,853.8055128999999,None,down,0.5042814999999337,854.3054734999998,None,None,None,None,1.4736842105263157,1.4736842105263157,300,-300,600,right,left,,Nick,001,2021_Jul_19_1956,compare_lines,2021.2.0,59.995524333880994,
horizontal,0,0,0,0,74,0,296,0,,,,,,,,,,,,,854.8458307999999,None,855.3554359,None,856.3556658999998,None,right,0.5307902999998078,856.8553979999999,None,None,None,None,4.0,4.0,300,-300,600,left,right,,Nick,001,2021_Jul_19_1956,compare_lines,2021.2.0,59.995524333880994,
diagonal1,0,0,0,0,74,1,297,2,,,,,,,,,,,,,857.4095622,None,857.9219681,None,858.9220641,None,left,0.6824204000001828,859.4223981999999,None,None,None,None,2.1052631578947367,1.631578947368421,300,-300,600,left,right,,Nick,001,2021_Jul_19_1956,compare_lines,2021.2.0,59.995524333880994,
vertical,0,0,0,0,74,2,298,1,,,,,,,,,,,,,860.1272088999999,None,860.6391042999999,None,861.6383764,None,right,0.5918985000000703,862.1384054,None,None,None,None,1.0,3.526315789473684,300,-300,600,right,left,,Nick,001,2021_Jul_19_1956,compare_lines,2021.2.0,59.995524333880994,
diagonal2,0,0,0,0,74,3,299,3,,,,,,,,,,,,,862.7639064,None,863.2715263,None,864.2715883999999,None,right,0.42319479999991927,864.7715344999999,None,None,None,None,1.9473684210526314,3.3684210526315788,300,-300,600,left,right,,Nick,001,2021_Jul_19_1956,compare_lines,2021.2.0,59.995524333880994,
diagonal1,0,0,0,0,75,0,300,2,,,,,,,,,,,,,865.2258128999999,None,865.7381413999999,None,866.7379558999999,None,down,0.605250500000011,867.2379377,None,None,None,None,2.5789473684210527,2.5789473684210527,300,-300,600,right,left,,Nick,001,2021_Jul_19_1956,compare_lines,2021.2.0,59.995524333880994,
horizontal,0,0,0,0,75,1,301,0,,,,,,,,,,,,,867.8751459,None,868.3879387,None,869.3880070999999,None,down,0.6769861000000219,869.8879812999999,None,None,None,None,2.4210526315789473,2.4210526315789473,300,-300,600,left,right,,Nick,001,2021_Jul_19_1956,compare_lines,2021.2.0,59.995524333880994,
diagonal2,0,0,0,0,75,2,302,3,,,,,,,,,,,,,870.5946569999999,None,871.1045337999999,None,872.1044677999998,None,left,0.3373929000001681,872.6044482999998,None,None,None,None,3.2105263157894735,1.631578947368421,300,-300,600,left,right,,Nick,001,2021_Jul_19_1956,compare_lines,2021.2.0,59.995524333880994,
vertical,0,0,0,0,75,3,303,1,,,,,,,,,,,,,872.9748832,None,873.4877116,None,874.4875849999999,None,down,0.5538671000001614,874.9876179,None,None,None,None,4.0,2.1052631578947367,300,-300,600,left,right,,Nick,001,2021_Jul_19_1956,compare_lines,2021.2.0,59.995524333880994,
horizontal,0,0,0,0,76,0,304,0,,,,,,,,,,,,,875.5780127999999,None,876.0876188999998,None,877.0875357999998,None,down,0.5861727999999857,877.5875096999998,None,None,None,None,3.8421052631578947,3.8421052631578947,300,-300,600,left,right,,Nick,001,2021_Jul_19_1956,compare_lines,2021.2.0,59.995524333880994,
diagonal1,0,0,0,0,76,1,305,2,,,,,,,,,,,,,878.1942161,None,878.7040760999998,None,879.7040362,None,left,0.4009817999999541,880.2039864999999,None,None,None,None,2.894736842105263,2.894736842105263,300,-300,600,right,left,,Nick,001,2021_Jul_19_1956,compare_lines,2021.2.0,59.995524333880994,
vertical,0,0,0,0,76,2,306,1,,,,,,,,,,,,,880.6275859999998,None,881.1372646,None,882.1372156999998,None,down,0.5859876000001805,882.6371769,None,None,None,None,3.3684210526315788,2.894736842105263,300,-300,600,left,right,,Nick,001,2021_Jul_19_1956,compare_lines,2021.2.0,59.995524333880994,
diagonal2,0,0,0,0,76,3,307,3,,,,,,,,,,,,,883.2418035999999,None,883.7537924999999,None,884.753768,None,down,0.549989000000096,885.2537608999999,None,None,None,None,3.3684210526315788,3.3684210526315788,300,-300,600,left,right,,Nick,001,2021_Jul_19_1956,compare_lines,2021.2.0,59.995524333880994,
horizontal,0,0,0,0,77,0,308,0,,,,,,,,,,,,,885.8279266,None,886.3368653999999,None,887.3369685999999,None,left,0.5474277999999231,887.8370834,None,None,None,None,3.526315789473684,3.526315789473684,300,-300,600,right,left,,Nick,001,2021_Jul_19_1956,compare_lines,2021.2.0,59.995524333880994,
vertical,0,0,0,0,77,1,309,1,,,,,,,,,,,,,888.4102900999999,None,888.9201017999999,None,889.9201120999999,None,left,0.5093718999999055,890.4200914999999,None,None,None,None,3.6842105263157894,3.6842105263157894,300,-300,600,right,left,,Nick,001,2021_Jul_19_1956,compare_lines,2021.2.0,59.995524333880994,
diagonal2,0,0,0,0,77,2,310,3,,,,,,,,,,,,,890.9602585,None,891.4700637999999,None,892.4699218999999,None,left,0.4503873000001022,892.9699452999998,None,None,None,None,3.2105263157894735,1.7894736842105263,300,-300,600,right,left,,Nick,001,2021_Jul_19_1956,compare_lines,2021.2.0,59.995524333880994,
diagonal1,0,0,0,0,77,3,311,2,,,,,,,,,,,,,893.4434302,None,893.9530907999999,None,894.9534177999999,None,left,0.4845758000001297,895.4531617999999,None,None,None,None,3.2105263157894735,1.0,300,-300,600,left,right,,Nick,001,2021_Jul_19_1956,compare_lines,2021.2.0,59.995524333880994,
diagonal2,0,0,0,0,78,0,312,3,,,,,,,,,,,,,895.9600157,None,896.4697051999999,None,897.4696756999999,None,left,0.8534310999998524,897.9696342999998,None,None,None,None,4.0,3.6842105263157894,300,-300,600,right,left,,Nick,001,2021_Jul_19_1956,compare_lines,2021.2.0,59.995524333880994,
diagonal1,0,0,0,0,78,1,313,2,,,,,,,,,,,,,898.8432114,None,899.3528185999999,None,900.3528423,None,right,0.4688990999998168,900.8527922999999,None,None,None,None,2.7368421052631575,4.0,300,-300,600,right,left,,Nick,001,2021_Jul_19_1956,compare_lines,2021.2.0,59.995524333880994,
horizontal,0,0,0,0,78,2,314,0,,,,,,,,,,,,,901.3402418999999,None,901.8529128,None,902.8526987,None,left,0.47763080000004265,903.3526262999999,None,None,None,None,2.894736842105263,2.1052631578947367,300,-300,600,left,right,,Nick,001,2021_Jul_19_1956,compare_lines,2021.2.0,59.995524333880994,
vertical,0,0,0,0,78,3,315,1,,,,,,,,,,,,,903.8594134,None,904.3692859,None,905.3692097999999,None,left,0.4499468000001343,905.8692338999999,None,None,None,None,3.052631578947368,3.052631578947368,300,-300,600,right,left,,Nick,001,2021_Jul_19_1956,compare_lines,2021.2.0,59.995524333880994,
diagonal1,0,0,0,0,79,0,316,2,,,,,,,,,,,,,906.3432883999999,None,906.8524616,None,907.8524199999999,None,down,0.511555000000044,908.3523915999999,None,None,None,None,1.1578947368421053,1.1578947368421053,300,-300,600,left,right,,Nick,001,2021_Jul_19_1956,compare_lines,2021.2.0,59.995524333880994,
vertical,0,0,0,0,79,1,317,1,,,,,,,,,,,,,908.892619,None,909.4023353999999,None,910.4022648,None,left,0.4340093999999226,910.9022723999999,None,None,None,None,3.6842105263157894,1.7894736842105263,300,-300,600,left,right,,Nick,001,2021_Jul_19_1956,compare_lines,2021.2.0,59.995524333880994,
diagonal2,0,0,0,0,79,2,318,3,,,,,,,,,,,,,911.3589959999999,None,911.8688362999999,None,912.8687812999999,None,down,0.4808266000000003,913.3687694999999,None,None,None,None,2.894736842105263,2.894736842105263,300,-300,600,right,left,,Nick,001,2021_Jul_19_1956,compare_lines,2021.2.0,59.995524333880994,
horizontal,0,0,0,0,79,3,319,0,,,,,,,,,,,,,913.8756051999999,None,914.3853965999999,None,915.3853042999999,None,down,0.5145172999998522,915.8852327,None,None,None,None,1.631578947368421,1.631578947368421,300,-300,600,left,right,,Nick,001,2021_Jul_19_1956,compare_lines,2021.2.0,59.995524333880994,
diagonal1,0,0,0,0,80,0,320,2,,,,,,,,,,,,,916.4254641999999,None,916.9350763,None,917.9351423999999,None,down,0.8187026999999034,918.4351933,None,None,None,None,2.894736842105263,2.894736842105263,300,-300,600,left,right,,Nick,001,2021_Jul_19_1956,compare_lines,2021.2.0,59.995524333880994,
horizontal,0,0,0,0,80,1,321,0,,,,,,,,,,,,,919.2754522999999,None,919.7849254,None,920.7850294999998,None,left,0.5531545999999707,921.2848861999998,None,None,None,None,2.7368421052631575,1.3157894736842106,300,-300,600,right,left,,Nick,001,2021_Jul_19_1956,compare_lines,2021.2.0,59.995524333880994,
diagonal2,0,0,0,0,80,2,322,3,,,,,,,,,,,,,921.8556188,None,922.3681153,None,923.3682111999999,None,left,0.5259482999999818,923.8683056999998,None,None,None,None,2.5789473684210527,1.4736842105263157,300,-300,600,left,right,,Nick,001,2021_Jul_19_1956,compare_lines,2021.2.0,59.995524333880994,
vertical,0,0,0,0,80,3,323,1,,,,,,,,,,,,,924.4254917999999,None,924.9346662999999,None,925.9346742999999,None,right,0.4340426999999636,926.4346982,None,None,None,None,2.5789473684210527,2.7368421052631575,300,-300,600,left,right,,Nick,001,2021_Jul_19_1956,compare_lines,2021.2.0,59.995524333880994,
diagonal2,0,0,0,0,81,0,324,3,,,,,,,,,,,,,926.8913885,None,927.4012478,None,928.4012106,None,right,0.3923757000000023,928.9010662999999,None,None,None,None,2.5789473684210527,4.0,300,-300,600,left,right,,Nick,001,2021_Jul_19_1956,compare_lines,2021.2.0,59.995524333880994,
horizontal,0,0,0,0,81,1,325,0,,,,,,,,,,,,,929.3246067,None,929.8344457999999,None,930.8344516,None,right,0.4535705999999209,931.3343938999999,None,None,None,None,1.631578947368421,2.894736842105263,300,-300,600,right,left,,Nick,001,2021_Jul_19_1956,compare_lines,2021.2.0,59.995524333880994,
vertical,0,0,0,0,81,2,326,1,,,,,,,,,,,,,931.8086575,None,932.3176535999999,None,933.3177572,None,right,0.49333019999994576,933.8177989999999,None,None,None,None,3.6842105263157894,3.6842105263157894,300,-300,600,left,right,,Nick,001,2021_Jul_19_1956,compare_lines,2021.2.0,59.995524333880994,
diagonal1,0,0,0,0,81,3,327,2,,,,,,,,,,,,,934.3413290999999,None,934.8508047,None,935.8507629999999,None,left,0.6320081999999729,936.3507382999999,None,None,None,None,3.8421052631578947,3.8421052631578947,300,-300,600,right,left,,Nick,001,2021_Jul_19_1956,compare_lines,2021.2.0,59.995524333880994,
,0,0,0,0,,,,,,,,,,,,,,,,,,,,,,,,,,,,,,,,,,,,,,Nick,001,2021_Jul_19_1956,compare_lines,2021.2.0,59.995524333880994,
diagonal1,1,0,1,0,0,0,0,2,,,,,,,937.0184769999998,None,space,380.4359439,937.0184769999998,None,1317.482883,None,None,None,None,None,None,,None,None,left,1317.9981317,None,3.6842105263157894,1.1578947368421053,300,-300,600,nan,nan,0.7834809999999379,Nick,001,2021_Jul_19_1956,compare_lines,2021.2.0,59.995524333880994,
horizontal,1,0,1,0,0,1,1,0,,,,,,,,,,,,,1318.8041332,None,None,None,None,None,None,,None,None,right,1319.3137735999999,None,2.5789473684210527,4.0,300,-300,600,nan,nan,0.5647186000001057,Nick,001,2021_Jul_19_1956,compare_lines,2021.2.0,59.995524333880994,
vertical,1,0,1,0,0,2,2,1,,,,,,,,,,,,,1319.9033674,None,None,None,None,None,None,,None,None,right,1320.4127418,None,1.0,1.631578947368421,300,-300,600,nan,nan,1.004801900000075,Nick,001,2021_Jul_19_1956,compare_lines,2021.2.0,59.995524333880994,
diagonal2,1,0,1,0,0,3,3,3,,,,,,,,,,,,,1321.4527389999998,None,None,None,None,None,None,,None,None,down,1321.9624899,None,1.3157894736842106,1.3157894736842106,300,-300,600,nan,nan,1.1720531000000847,Nick,001,2021_Jul_19_1956,compare_lines,2021.2.0,59.995524333880994,
diagonal1,1,0,1,0,1,0,4,2,,,,,,,,,,,,,1323.1688405999998,None,None,None,None,None,None,,None,None,left,1323.6790268999998,None,2.894736842105263,2.4210526315789473,300,-300,600,nan,nan,1.1542707000000973,Nick,001,2021_Jul_19_1956,compare_lines,2021.2.0,59.995524333880994,
horizontal,1,0,1,0,1,1,5,0,,,,,,,,,,,,,1324.8687467,None,None,None,None,None,None,,None,None,down,1325.379181,None,1.7894736842105263,1.7894736842105263,300,-300,600,nan,nan,0.9252929000001586,Nick,001,2021_Jul_19_1956,compare_lines,2021.2.0,59.995524333880994,
diagonal2,1,0,1,0,1,2,6,3,,,,,,,,,,,,,1326.3362948,None,None,None,None,None,None,,None,None,right,1326.8454116999999,None,2.5789473684210527,3.6842105263157894,300,-300,600,nan,nan,0.7746715000000677,Nick,001,2021_Jul_19_1956,compare_lines,2021.2.0,59.995524333880994,
vertical,1,0,1,0,1,3,7,1,,,,,,,,,,,,,1327.65299,None,None,None,None,None,None,,None,None,right,1328.1624445,None,2.7368421052631575,2.894736842105263,300,-300,600,nan,nan,1.8796678999999585,Nick,001,2021_Jul_19_1956,compare_lines,2021.2.0,59.995524333880994,
horizontal,1,0,1,0,2,0,8,0,,,,,,,,,,,,,1330.0686366999998,None,None,None,None,None,None,,None,None,down,1330.578822,None,3.6842105263157894,3.6842105263157894,300,-300,600,nan,nan,1.6251979999999548,Nick,001,2021_Jul_19_1956,compare_lines,2021.2.0,59.995524333880994,
vertical,1,0,1,0,2,1,9,1,,,,,,,,,,,,,1332.2346952999999,None,None,None,None,None,None,,None,None,down,1332.7454926,None,4.0,3.052631578947368,300,-300,600,nan,nan,0.9588251000000128,Nick,001,2021_Jul_19_1956,compare_lines,2021.2.0,59.995524333880994,
diagonal2,1,0,1,0,2,2,10,3,,,,,,,,,,,,,1333.7354234,None,None,None,None,None,None,,None,None,down,1334.245068,None,3.6842105263157894,3.6842105263157894,300,-300,600,nan,nan,0.7260412999999062,Nick,001,2021_Jul_19_1956,compare_lines,2021.2.0,59.995524333880994,
diagonal1,1,0,1,0,2,3,11,2,,,,,,,,,,,,,1335.0011372,None,None,None,None,None,None,,None,None,down,1335.5117080999999,None,1.631578947368421,1.4736842105263157,300,-300,600,nan,nan,0.6764894000000368,Nick,001,2021_Jul_19_1956,compare_lines,2021.2.0,59.995524333880994,
vertical,1,0,1,0,3,0,12,1,,,,,,,,,,,,,1336.2178469,None,None,None,None,None,None,,None,None,right,1336.7276258,None,2.4210526315789473,3.526315789473684,300,-300,600,nan,nan,0.7542273000001387,Nick,001,2021_Jul_19_1956,compare_lines,2021.2.0,59.995524333880994,
